Time (s),Linear Acceleration x (m/s^2),Linear Acceleration y (m/s^2),Linear Acceleration z (m/s^2),Absolute acceleration (m/s^2)
0.157855376,-0.071338356,-0.035480887,-0.033333778,0.086366632
0.162808188,-0.057673782,-0.037545875,-0.028874397,0.074630347
0.167761001,-0.062908113,-0.017429069,-0.031568527,0.072510517
0.172713813,-0.07264328,-0.030388057,-0.031977654,0.084988531
0.177666678,-0.068465829,-0.033798039,-0.021174431,0.079235306
0.182619543,-0.064606905,-0.014395505,-0.015544891,0.067992105
0.187572407,-0.065782845,-0.014141381,0.00113678,0.067295272
0.192525272,-0.090322256,-0.009311646,-0.028549194,0.095183366
0.197478188,-0.068359077,-0.009233117,0.025325775,0.07348203
0.202431105,-0.051900804,-0.018222854,0.031104088,0.06319201
0.207384022,-0.04075712,0.003186122,0.038994789,0.056496794
0.212336938,-0.039379835,-0.001362264,0.030555725,0.049862606
0.217289907,-0.035874128,0.005944774,0.024799347,0.044014782
0.222242876,-0.027766734,-0.005450502,0.035420418,0.045335477
0.227195845,-0.008155614,-0.025565252,0.00645256,0.027599487
0.232148813,-0.012114465,-0.014850482,0.010843277,0.022019849
0.237101834,-0.03695789,-0.013767749,-0.005718231,0.039851408
0.242054855,-0.047312438,-0.024432555,-0.042596817,0.068190215
0.247007876,-0.015645593,-0.016351268,-0.025026321,0.033741152
0.251960949,-0.012695104,-0.01798825,-0.024272919,0.032770679
0.256916209,-0.037785321,-0.024357095,-0.037503242,0.058544785
0.261871366,-0.034514457,-0.040039375,-0.031776428,0.061677717
0.26670897,-0.012965828,-0.020629689,-0.021572113,0.032543092
0.271622824,-0.01053381,-0.029773071,-0.020983696,0.037917178
0.276464491,0.017699867,-0.013106868,0.000541687,0.022031085
0.281321261,0.019676328,0.005454317,0.000514984,0.020424805
0.286177511,0.007610738,0.000212654,0.012161255,0.014347985
0.291033709,0.002852291,0.00923045,0.021195412,0.023293395
0.295892668,0.038053066,0.011196554,0.048722267,0.062827207
0.300748657,0.018788576,0.008678466,0.042898178,0.047629613
0.305603345,0.014009029,0.008673728,0.020852089,0.026576231
0.310460428,0.013852894,0.004106656,0.018046379,0.023117939
0.315318084,0.018161625,0.011465982,0.010639191,0.023968849
0.320174907,0.017700911,0.007130533,0.008084297,0.020724927
0.325030532,0.024289429,0.009918287,0.014962196,0.030202916
0.329846001,0.039964736,0.000922471,-0.008770943,0.040926281
0.334703449,0.027243912,-0.000964269,-0.015615463,0.031416608
0.339560116,0.071171761,-0.007626727,-0.015295982,0.073195311
0.344416053,0.062740028,-0.002538726,-0.026737213,0.068246867
0.349272772,0.05225575,-0.011931822,-0.026238441,0.0596782
0.354130324,0.07264632,-0.011928886,-0.03046608,0.079674137
0.358986991,0.045736074,-0.009697556,-0.006425858,0.047192401
0.36384298,0.063938498,-0.005275995,-0.003978729,0.064279063
0.368699595,0.046560466,0.001360789,-0.015688896,0.049151503
0.373557876,0.055146813,-0.003938377,0.003396034,0.055391469
0.378413918,0.068366706,0.021498874,0.022153854,0.075013341
0.383269855,0.060196996,0.041979983,0.026486397,0.078022603
0.388126522,0.047410548,0.022277519,0.037823677,0.064611752
0.392984022,0.027602494,0.028979346,0.034869194,0.053080701
0.397840741,0.036273718,0.038053825,0.029622078,0.060343548
0.402696678,0.061428845,0.035495326,0.033890724,0.07862571
0.407553397,0.074540198,0.021368876,0.028668404,0.082672531
0.412410897,0.054459929,0.024021208,0.016460419,0.061756358
0.417267668,0.037050188,0.031356066,0.01858902,0.051975677
0.422123605,0.043435931,0.01022549,0.006540298,0.045100069
0.426980324,0.05940634,0.012936562,-0.007706642,0.061285073
0.431838449,0.056396544,0.001217932,-0.009962082,0.057282603
0.436737616,0.032198966,0.001293674,-0.040514946,0.051767826
0.441591991,0.034194589,0.008158103,-0.039959908,0.053222352
0.446448397,0.031388104,0.005366042,-0.044141769,0.054428883
0.451306261,0.028683305,0.014305592,-0.015215874,0.035481048
0.456162407,-0.007050693,0.020650744,0.008594513,0.023452743
0.461019803,-0.007514596,0.022071943,-0.015127182,0.02779337
0.465875376,0.030008197,0.047166631,0.032339096,0.06458328
0.470733032,0.041520715,0.03666997,0.067362785,0.087214685
0.475589855,-0.013639331,0.06194286,-0.002031326,0.063459244
0.48044548,0.04081279,0.053982154,-0.002001762,0.067703499
0.485302459,0.028913379,0.029865995,0.045293808,0.061477558
0.490160949,-0.009083211,0.039386064,-0.026208878,0.048173354
0.495016782,-0.032777667,0.044188574,-0.03060627,0.062958314
0.499872511,-0.046964198,0.022976711,0.002907753,0.052364303
0.504728761,-0.032889247,0.03750667,-0.006544113,0.05031181
0.509545584,-0.028557092,0.021049067,-0.001685143,0.035516341
0.514401991,-0.038832396,0.016504809,-0.060761452,0.073975116
0.51925798,0.014968216,-0.00241898,-0.012672424,0.019760802
0.524114699,0.037798464,0.03545028,0.12243557,0.132950799
0.528972199,0.037691116,-0.007417649,-0.215123177,0.218526023
0.533829022,-0.031018406,-0.005059525,0.045307159,0.055140539
0.538684803,-0.131972164,0.013101026,-0.052193642,0.142521806
0.543541626,0.101163149,0.021997362,-0.177142143,0.205176036
0.548399074,0.002252817,0.014395222,0.348117828,0.348422617
0.553255741,-0.026986718,0.041827783,-0.134037018,0.142981707
0.55811173,0.046644032,0.031589001,-0.094734192,0.11021841
0.562968553,-0.155793101,0.033141375,0.401471138,0.431913088
0.567826001,0.047231495,0.096234515,-0.183076859,0.212153322
0.572682772,0.195162714,0.048466519,0.022515297,0.202347292
0.577538657,-0.24749735,-0.023091897,0.292482376,0.383841262
0.582395376,-0.046615899,0.059789225,-0.343151093,0.351426331
0.587252876,0.290097535,0.060273543,0.217222214,0.367389398
0.592109595,-0.273481011,-0.015444547,0.335978508,0.433488126
0.596965532,-0.052869648,0.044198811,-0.525444031,0.529943548
0.601822251,0.327482939,0.049478069,0.342577934,0.476500572
0.606679699,-0.269608706,0.009081677,0.28236866,0.390516826
0.611536626,-0.113607645,0.042305723,-0.713857651,0.724078184
0.616392407,0.247723222,0.045133621,0.405088425,0.476970094
0.621290584,-0.283623993,-0.031203508,0.128582001,0.312968943
0.626147616,-0.133314759,-0.029195607,-0.693205833,0.706512233
0.631004751,0.217895508,0.027754813,0.589389801,0.628990556
0.635861313,-0.13286975,0.012848988,0.031277657,0.137104919
0.64071798,-0.037049383,0.021636903,-0.500398636,0.502234614
0.645574855,0.157211304,0.030401573,0.633483887,0.653407594
0.650431574,-0.028253019,0.038920641,-0.069835663,0.084794276
0.655287459,0.048320889,0.047837898,-0.365941048,0.372204545
0.660144334,0.058722973,0.047417521,0.524729729,0.530130264
0.665001834,-0.201872677,0.020840228,-0.125448227,0.238587825
0.669858553,-0.063325822,0.032649145,-0.311892509,0.319926654
0.674724491,-0.018398643,0.039730459,0.464594841,0.466653389
0.679570949,-0.187530667,0.030313209,-0.109027863,0.219029031
0.684429074,0.032707214,0.068688154,-0.16497612,0.18167263
0.689244282,-0.005807936,0.068805873,0.327871323,0.335063553
0.694099959,-0.14367047,-0.004780173,-0.197026253,0.243892185
0.698956626,0.164338112,0.031457812,-0.059951782,0.17773808
0.703814126,0.126877308,0.036640212,0.275212288,0.30525753
0.708670845,-0.104145944,-0.065338925,-0.232785225,0.263257504
0.713526782,0.072560728,-0.02680099,-0.050416946,0.092332122
0.718383501,0.089261413,0.02559936,0.189628601,0.211144343
0.723241053,-0.104263276,-0.015197277,-0.137314796,0.173081314
0.728097824,0.042803526,0.000976354,-0.043660164,0.061149857
0.732953761,-0.002673328,0.047876149,0.10614109,0.116469753
0.737810428,-0.183398336,-0.014994368,-0.08704567,0.203560137
0.742668084,-0.019530058,0.024630874,-0.036398888,0.048093473
0.747524647,0.015815556,0.038214847,0.099245071,0.107517862
0.752380584,-0.09784174,-0.014726177,-0.032064438,0.104009588
0.757237355,0.031552792,0.01117909,0.058519363,0.067417109
0.762094855,0.090214014,0.075372562,0.131656647,0.176502306
0.766951522,0.020066917,0.039669275,-0.018974304,0.048335875
0.771807563,0.177327991,0.0472278,0.09986496,0.208922693
0.77666423,0.161886036,0.062133908,0.113155365,0.207055181
0.78152173,0.010723054,0.001001567,-0.094433784,0.095045919
0.786378449,0.036508024,-0.005068317,0.013093948,0.039114896
0.791234491,0.007703543,-0.00883624,0.029496193,0.031740339
0.796133397,-0.096140593,-0.046151787,-0.165454865,0.196845913
0.800948813,-0.083894342,-0.052879959,-0.026352882,0.102611038
0.805846678,-0.022370905,0.001762033,2.28882E-05,0.022440202
0.810702616,0.011658013,-0.005953372,-0.10910511,0.109887565
0.815559438,0.033416033,-0.016094938,0.027217865,0.046005331
0.820417928,0.076767027,0.018665433,0.03180027,0.085163561
0.825273293,0.151376009,0.001015753,-0.053909302,0.160692068
0.830129803,0.119980514,-0.023496106,0.138793945,0.184962564
0.834987095,0.07541889,0.006982327,0.054450035,0.093282196
0.839861053,0.105181992,0.018558905,-0.055317879,0.120281969
0.844700741,0.047360539,0.018453866,0.127825737,0.137560841
0.849556522,-0.02942872,0.030398279,0.031695366,0.052864934
0.854414282,0.048159063,0.045021981,-0.070717812,0.096681348
0.859270949,0.018028677,0.012325689,0.112636566,0.114734266
0.864127511,-0.082272857,0.02026239,-0.021217346,0.087347372
0.868941991,-0.033489823,-0.01229018,-0.101655006,0.107732804
0.873798657,0.055638492,-0.023316279,0.098703384,0.115679077
0.878656209,0.003890634,-0.03917326,-0.027864456,0.048229755
0.883512876,0.016559899,-0.045692712,-0.079776764,0.093415129
0.888368866,0.113265872,-0.040523082,0.101348877,0.157298674
0.893225532,0.086525142,-0.019010395,-0.020597458,0.090951914
0.898083032,0.093827665,-0.004915908,-0.127314568,0.158230199
0.902939803,0.147457659,-0.021863967,0.039813042,0.154294759
0.907795688,0.074984133,-0.015106902,0.001362801,0.076502915
0.912652459,0.024889946,-0.051140919,-0.051033974,0.076415767
0.917509959,-0.101749957,-0.027640432,0.132096291,0.169016204
0.922366782,-0.149930179,-0.016258568,-0.141962051,0.207115001
0.927222668,0.047350705,0.01673907,0.049200058,0.070305984
0.932079334,-0.055864066,-0.0027114,0.203142166,0.210700938
0.936936834,0.074724317,0.023222283,-0.275609016,0.286501881
0.941793553,0.187675357,0.02826485,0.10183239,0.215385183
0.946649491,-0.015260756,-0.02122061,0.283780098,0.284981313
0.951506209,0.016613603,-0.018178627,-0.18145752,0.183121014
0.956363709,0.198504567,-0.000454426,0.081142426,0.214448975
0.96122048,-0.063512087,-0.05444555,0.331968307,0.342346404
0.966076418,-0.071872324,-0.027728319,-0.176521301,0.192598703
0.970933241,0.125467718,0.044334903,-0.042196274,0.139600349
0.975834959,-0.161121339,-0.036256716,0.12426281,0.206678207
0.980688501,-0.092591405,-0.040845916,-0.209069252,0.232274642
0.985544855,0.198081851,-0.007358432,0.025324821,0.19982971
0.990411522,-0.106736779,-0.043000534,0.103421211,0.154718237
0.99525923,-0.184527129,-0.081236497,-0.232064247,0.307414125
1.000074282,0.141253471,-0.009826392,0.080927849,0.163090214
1.004971626,-0.061232567,-0.033750936,0.068352699,0.097778548
1.009829022,-0.12851119,-0.046059877,-0.200438499,0.24251233
1.01468673,0.198950112,0.032239527,0.059947014,0.210271678
1.019542199,0.050596833,0.00356774,0.097285271,0.109714139
1.024399438,-0.167985857,-0.044137195,-0.098222733,0.199537077
1.029255272,0.097901523,0.015560716,0.106722832,0.145659215
1.034112928,0.054448724,-0.010358706,0.169813156,0.178629433
1.038969647,-0.18072772,-0.050595179,0.033055305,0.190565039
1.043825584,-0.070216089,0.013911009,0.099266052,0.12238286
1.048641678,-0.038797259,0.02611053,0.027223587,0.054112021
1.053498293,-0.161156684,-0.018877849,-0.077377319,0.179764011
1.058354959,0.005299747,0.007616624,0.030163765,0.031558723
1.063210897,0.117394209,0.029666066,-0.046076775,0.129555181
1.068067668,-0.03295204,-0.050617754,-0.105044365,0.121170593
1.072925168,-0.023033738,-0.045106634,0.05014801,0.07127401
1.077781886,0.049519718,-0.022905931,-0.02154541,0.058660794
1.082637824,-0.032676488,-0.034419537,-0.057042122,0.074204185
1.087494543,-0.107236832,-0.017804295,0.026464462,0.111879841
1.092352095,-0.036410868,0.005736589,-0.045042038,0.058201761
1.097208761,-0.045045316,-0.004211962,-0.023334503,0.050905011
1.102064855,-0.120724559,-0.004755661,0.033833504,0.125466097
1.106921418,0.003597021,-0.012417361,-0.042423248,0.044349311
1.11177897,0.106270373,-0.008092284,0.081344604,0.134073942
1.116635688,-0.043512285,-0.003858462,0.109113693,0.117532994
1.121491678,-0.076410413,0.000520736,-0.038999557,0.085789206
1.126348293,0.024324536,0.028951317,0.056270599,0.067795591
1.131205793,-0.051058203,0.038329467,0.084255219,0.105712014
1.136062616,-0.088348627,0.014630318,-0.092142105,0.128490053
1.140918501,0.045843244,0.041393206,-0.01066494,0.062679673
1.14577522,0.008268505,0.03729932,0.079616547,0.088308561
1.150632824,-0.060729623,0.014307767,-0.070596695,0.094216202
1.15549022,0.070450455,-0.022795409,0.022596359,0.077417651
1.160387147,0.085083753,-0.002901256,0.126832962,0.152755565
1.165243449,-0.062260568,-0.035695314,-0.068924904,0.099504654
1.17010147,0.005297482,0.002720028,-0.011397362,0.012859305
1.174969074,0.025159925,0.019153401,0.062247276,0.069818322
1.179814334,-0.074319601,0.011534631,-0.142477989,0.161109988
1.18467048,-0.009152979,-0.005750909,-0.053479195,0.054560739
1.189527876,0.082283258,0.007790789,0.082221985,0.116583386
1.194384855,0.003985256,0.011723027,-0.079953194,0.080906272
1.199240428,-0.026875347,-0.012864098,-0.022321701,0.037229392
1.204097199,0.068466544,0.038665041,0.136911392,0.157884079
1.208954751,0.027745724,0.071062699,0.009921074,0.076929579
1.213811522,-0.038925201,0.051311582,0.000337601,0.06440624
1.21866772,0.039898038,0.081870481,0.119036674,0.14988115
1.22352423,0.058885425,0.098454103,0.00170517,0.114732782
1.228340324,0.034976304,0.025078043,-0.01492691,0.045552856
1.233197095,0.116197675,0.032985002,0.111005783,0.164049365
1.23805298,0.128705412,0.038562506,0.003182411,0.134395974
1.242909751,0.029408753,-0.003444538,-0.025390625,0.039005428
1.247767199,-0.031714827,0.00191541,0.048387527,0.057886543
1.252624022,-0.00257957,0.03785567,-0.058864594,0.070033894
1.257479959,-0.03338939,0.01159665,-0.084488869,0.091584401
1.262336626,-0.047789484,-0.014793053,0.011199951,0.051265077
1.267194178,0.039668173,0.03234151,-0.052964211,0.073652867
1.272050845,0.055288136,0.007797793,-0.071492195,0.090712279
1.276906782,0.061455309,-0.002532259,0.043074608,0.07509054
1.281763501,0.148931861,0.027406514,0.021325111,0.152926703
1.286621001,0.172683418,0.019281089,-0.000295639,0.173756757
1.291477824,0.04707244,0.030330271,0.05896759,0.081319842
1.296333709,0.019674182,0.077077359,0.022780418,0.08274624
1.30119048,0.018619359,0.081221551,-0.022590637,0.086336306
1.30604798,-0.023136556,0.057191074,0.039275169,0.073134521
1.310904647,-0.062985182,0.057221681,-0.01091671,0.085794105
1.315760584,0.018229246,0.052850261,-0.010810852,0.056941462
1.320617303,0.001018077,0.027203485,0.070036888,0.075141412
1.325474855,-0.033426315,0.013349965,0.019665718,0.041015613
1.330331678,0.062993616,0.00904718,0.002951622,0.063708392
1.335188449,0.078587294,0.01184155,0.078931808,0.112010783
1.340101522,-0.003059179,0.021446064,-0.004803658,0.022189353
1.344959022,0.030404031,0.021416262,-0.045131683,0.05848017
1.349800011,0.069206208,0.014260858,0.012173653,0.071701249
1.354655741,0.017646283,0.002128884,-0.028352737,0.03346343
1.359513293,0.049785614,-0.010079697,-0.080423355,0.095121626
1.364371834,0.072625071,0.001490876,0.012739182,0.073748969
1.36922798,-0.02627334,0.017425165,-0.020687103,0.037707837
1.37408298,-0.075597316,0.016549632,-0.077521324,0.109537209
1.378939907,-0.041880071,0.034852013,0.02046299,0.058200834
1.383796938,-0.094495684,0.053118393,0.008450508,0.108730902
1.388654074,-0.102203935,0.052475244,-0.036663055,0.120596332
1.393509855,0.001912147,0.040199712,0.080034256,0.089583231
1.398381366,0.036832303,0.052001819,0.103146553,0.121243635
1.403223761,0.033769459,0.030523941,0.026338577,0.052590949
1.408039386,0.11249432,0.018774807,0.111561775,0.159541515
1.412895116,0.080090642,0.028610617,0.103430748,0.133906676
1.417751834,-0.016086221,0.028926328,-0.028091431,0.043412296
1.422609334,-0.057088196,0.0031268,-0.001811981,0.057202468
1.427466053,-0.074356943,0.034521803,-0.025589943,0.085881052
1.432321991,-0.120728225,0.018116772,-0.117984772,0.169776111
1.437178813,-0.108115911,-0.017374903,-0.05525589,0.1226546
1.442036313,-0.041352063,0.004178479,-0.028650284,0.050480606
1.44689298,-0.032531857,-0.000738159,-0.071099281,0.078191908
1.45174897,-0.007224113,-0.036769003,0.010260582,0.038851344
1.456605636,0.037390053,-0.013262466,0.043430328,0.058822636
1.461463241,0.003868192,0.007673889,-0.028166771,0.029448573
1.466319907,-0.028907329,7.19726E-06,0.04563427,0.054019629
1.471175845,-0.025388777,0.030510217,0.073694229,0.08370366
1.476032668,-0.033419549,0.053814188,-0.002957344,0.06341592
1.480890063,-0.041382313,0.010567158,0.034992218,0.055214273
1.485746782,-0.023163259,0.005666882,0.079748154,0.08323712
1.490602772,-0.01714161,0.017601237,-0.001688957,0.024627036
1.495459491,-0.049739093,-0.013240218,0.014923096,0.053590853
1.500317043,-0.075525254,-0.005721688,0.040922165,0.086089635
1.505173709,-0.070697874,0.013724223,-0.051978111,0.08881592
1.510029699,-0.063711226,2.99513E-06,-0.032505989,0.071524539
1.514928345,-0.059278965,0.003026411,0.02241993,0.063449256
1.519785428,-0.019030184,0.025015131,-0.039453506,0.050442877
1.524642043,0.021407694,-0.022088051,0.003622055,0.030972417
1.529498813,0.035917372,-0.031103641,0.062929153,0.078851585
1.534313345,0.048447222,-0.016539067,-0.015986443,0.053630592
1.539212303,0.051864088,-0.021261573,0.000693321,0.056057281
1.544069178,-0.027738631,-0.028492734,0.040968895,0.057093939
1.548935584,-0.064347982,-0.009604245,-0.073391914,0.098077915
1.553781626,-0.075064808,-0.014613226,-0.056196213,0.094901455
1.558639438,-0.083608091,-0.012517154,0.020222664,0.086924957
1.563495688,-0.066488177,0.015621647,-0.039297104,0.078797055
1.568351782,-0.011757612,-0.006272823,0.001404762,0.013400116
1.573208501,0.030762583,-0.011307627,0.103491783,0.10855758
1.578067563,0.030193627,-0.011435717,0.024292946,0.040405172
1.582922772,0.060783982,-0.016080588,0.005097389,0.063081385
1.587737668,0.067897975,-0.006210789,0.083382607,0.107709647
1.59259397,-0.005704701,0.015685409,-0.007548332,0.018318106
1.597451574,-0.009843558,0.011458501,-0.009875298,0.018047559
1.602308241,0.009909987,0.016821519,0.066158295,0.068978919
1.607164178,0.0080733,0.007894859,0.013358116,0.017491319
1.612020897,0.008452296,-0.029560834,-0.027125359,0.041000845
1.616878397,0.056426734,-0.031328097,0.058548927,0.087140133
1.62173522,0.039723635,-0.033258274,-0.032172203,0.060984675
1.626591105,0.008622438,-0.047162428,-0.084139824,0.096840854
1.631447824,0.020514101,-0.025574401,-0.012221336,0.034989132
1.636305324,0.025125921,-0.006598726,-0.05723381,0.062853513
1.641162147,-0.013267517,-0.016326398,-0.082868576,0.085497247
1.646018032,0.008071065,-0.016651139,0.022283554,0.028964794
1.650874699,0.038902193,-0.024156749,0.026836395,0.053076561
1.655732251,0.043359786,-0.019731924,-0.030376434,0.056499094
1.66058897,0.093180537,-0.031904638,0.074316025,0.123383102
1.665444907,0.085838467,-0.012998149,0.061793327,0.106562703
1.670302772,0.054815501,0.006039321,-0.014720917,0.057078174
1.67515923,0.038237482,0.003725663,0.049481392,0.062644982
1.680015897,0.017049402,0.030154213,0.049051285,0.060049873
1.684871834,-0.020756066,0.011486799,-0.013091087,0.02709497
1.689728553,0.007996559,-0.009457439,0.055873871,0.057230041
1.694586418,0.029268622,-0.011181027,0.043546677,0.053646814
1.699499282,0.062174916,-0.029443815,-0.039895058,0.079525305
1.704340532,0.051898241,-0.04061836,0.019809723,0.068816449
1.709196834,0.060699672,-0.020951018,-0.018322945,0.066776684
1.714054438,0.031498551,-0.037062481,-0.094129562,0.105953578
1.718910741,0.026223034,-0.015231088,-0.03635025,0.047338929
1.723766991,0.004430801,-0.019988626,-0.017045975,0.026640992
1.728624647,0.001871526,-0.017700702,-0.050139427,0.053205071
1.73344022,0.035178244,-0.027589276,0.009618759,0.045729614
1.738337772,0.047076643,-0.039955109,0.056994438,0.084029679
1.74319423,0.066227734,-0.011795819,-0.012369156,0.068397735
1.748051522,0.056904495,-0.017051116,0.028049469,0.065693491
1.752918866,0.028549463,0.001591653,0.046772957,0.05482075
1.757765168,0.007374167,0.017875999,-0.024867058,0.031500798
1.762621053,-0.016230136,0.020014971,0.006193161,0.026502295
1.767486991,-0.051973224,0.022316724,0.051262856,0.076335657
1.77229522,-0.052265704,0.020077914,-0.001355171,0.056005918
1.777151261,-0.014750451,-0.00089632,0.029573441,0.03306006
1.782006366,0.005890548,-0.012143821,0.048370361,0.050218152
1.786864178,0.033597082,-0.013745174,-0.006591797,0.036893705
1.791720636,0.066404104,-0.012900963,0.000605583,0.067648405
1.796577303,0.047114402,0.002064556,0.014843941,0.049440589
1.801433293,0.025845379,0.004920751,-0.056519508,0.062343021
1.806290011,0.014424115,-0.001921028,-0.029959679,0.033306573
1.811147511,-0.048957318,-0.025671721,0.01061058,0.056288903
1.816004855,-0.066992164,-0.040016532,-0.048862457,0.092069607
1.82086022,-0.044749558,-0.033049151,-0.010492325,0.056611467
1.825716886,-0.03966099,-0.031121373,-0.000919342,0.050422011
1.830574438,-0.032707006,-0.007900715,-0.036513329,0.049652721
1.835431157,-0.006992489,0.003430665,-0.017192841,0.018874801
1.840287147,-0.007606775,0.021792933,0.016209602,0.028205428
1.845143813,-0.039138228,0.037802771,-0.00526619,0.054667935
1.850001366,-0.027555823,0.015925929,0.009049416,0.033088526
1.854858084,-0.032280862,0.023012593,0.084957123,0.093751513
1.859714022,-0.027235836,0.020779476,0.053390503,0.063435977
1.864570741,0.008982718,0.01880379,0.029195786,0.035870122
1.869428293,0.016701311,0.016961262,0.059794426,0.064358306
1.874286157,0.012601465,0.015192509,0.007040977,0.020956732
1.879182876,-0.010627359,0.022999793,-0.033394814,0.041918311
1.884040063,-0.026661783,0.002070814,-0.00938797,0.02834207
1.88889798,-0.076324403,-0.002295107,-0.035416603,0.084172548
1.893753918,-0.09048444,-0.009229288,-0.037467003,0.098368643
1.898609074,-0.08588177,-0.00452359,0.003245354,0.086062033
1.903466001,-0.071995109,-0.002461702,-0.020478249,0.074891351
1.908323761,-0.010683089,-0.007656053,-0.041632652,0.043658004
1.913180168,0.014914095,0.015566275,0.015712738,0.026676381
1.918036105,0.043313146,0.038536817,0.020317078,0.061432064
1.922893761,0.041019678,0.023387685,-0.020244598,0.051375496
1.927750845,0.013096005,0.036971152,0.027356148,0.047819768
1.932607251,-0.007295907,0.029196307,0.01757431,0.034849835
1.937463657,-0.039563447,0.016971007,0.007886887,0.043766247
1.94232048,-0.05998081,0.024021089,0.038656235,0.07529286
1.947177251,-0.066449404,0.03825143,0.012214661,0.077639507
1.951992511,-0.030650944,0.040721998,-0.00210762,0.051011798
1.956848553,-0.012064368,0.043292135,0.012195587,0.046567051
1.961705324,0.00619337,0.038721219,-0.009225845,0.040284077
1.966562824,0.036225915,0.031867161,-0.013851166,0.050196491
1.971419595,0.004514635,0.013143912,0.040904999,0.043201427
1.976275584,-0.005390137,0.018201515,0.014472961,0.023870805
1.981132199,0.01119563,-0.00544484,-0.002259254,0.012652772
1.985989751,0.030366182,-0.002956137,0.019115448,0.036003391
1.99084647,0.025869638,0.027829513,-0.014307022,0.040600626
1.995702459,0.028707713,0.020197377,-0.037965775,0.051705578
2.00055923,0.055379301,0.026870891,-0.013950348,0.063115165
2.005416626,0.02473259,0.033430457,-0.032864571,0.053003551
2.010273345,0.012983561,0.011384591,-0.030239105,0.034822195
2.015129282,-0.013203889,0.008515641,0.000867844,0.015735691
2.019986105,-0.034890145,0.012854084,0.01512146,0.040139859
2.024843605,-0.035436541,0.021962896,-0.013459206,0.043809445
2.029700272,0.01845327,0.040611848,0.038929939,0.059206297
2.034556261,0.022210836,0.052096754,0.031521797,0.064815251
2.039412928,0.06183967,0.044664949,0.007546425,0.076655404
2.04427048,0.108725995,0.039783075,0.059721947,0.130271816
2.049127199,0.103398532,0.039806753,0.061589241,0.12676383
2.053983657,0.079354435,0.016085938,0.027817726,0.085613724
2.058881313,0.055573314,-0.002688676,0.025186539,0.061073595
2.063739491,0.012992203,0.021308348,-0.003538132,0.025206376
2.068554543,-0.003528535,0.011807457,-0.048624992,0.050162301
2.07345147,-0.001208752,0.002388656,-0.033967972,0.034073301
2.078319803,0.019851595,0.016730383,-0.040790558,0.048351434
2.083165688,0.033383757,0.011845335,-0.064166069,0.073294417
2.088022303,0.082354039,0.009311303,-0.032739639,0.08911101
2.092878501,0.085982352,0.023300856,-0.006333351,0.089308489
2.097735272,0.058598876,0.006190509,-0.020503998,0.062390421
2.102608553,0.059989035,-0.008465409,0.010549545,0.061495044
2.107449543,0.061660528,0.014870584,0.02708149,0.068967834
2.112305428,0.056428999,0.021510959,0.007856369,0.060898898
2.117161991,0.079847425,0.035218358,0.031518936,0.092786785
2.122019334,0.09137395,0.039428696,0.050228119,0.111475041
2.126876313,0.093366146,0.046152964,0.011804581,0.104817372
2.131691886,0.092964351,0.040951043,0.047297478,0.112055388
2.136547511,0.104498118,0.02647014,0.03263855,0.112631256
2.141405011,0.077715367,0.026352003,-0.008002281,0.082450851
2.146261782,0.048432827,0.019173518,-0.012673378,0.053609486
2.15111772,0.066702366,0.035796329,-0.00067997,0.075703667
2.155974491,0.056156784,0.030977279,-0.041007042,0.07612328
2.160831991,0.109683514,0.030885562,-0.038259506,0.120200586
2.165688657,0.110825479,0.030739158,0.014307976,0.115896078
2.170544595,0.21201992,0.023407504,-0.00243187,0.213321991
2.175401418,0.141841561,-0.007718235,0.016558647,0.143013245
2.180259022,0.229233265,0.008781761,0.030627251,0.231436898
2.185115636,0.13581109,-0.020081148,0.016067505,0.138224707
2.189971522,0.166797966,0.003586084,0.006371498,0.166958131
2.194828241,0.109685093,0.01038444,0.006251335,0.110352777
2.199685897,0.147839457,0.021874398,-0.019974709,0.150777927
2.204542511,0.126146972,0.007153079,-0.007987976,0.126601868
2.209398501,0.163931489,0.006860524,0.025270462,0.166009627
2.214255168,0.179975629,0.018557727,0.020270348,0.182061812
2.21911272,0.174518973,0.001784295,0.029559135,0.177013553
2.223969438,0.185726643,0.004143804,0.048265457,0.191940385
2.228825376,0.132738829,0.006541997,0.028832436,0.135991557
2.233682772,0.153909028,0.020852163,-0.002316475,0.155332442
2.238581157,0.146715581,0.02555044,0.016636848,0.149850164
2.243437772,0.154108167,0.030266806,0.006930351,0.157205077
2.248293761,0.166537106,0.008886561,-0.026453972,0.168859087
2.253166574,0.202902764,0.004128799,0.011647224,0.203278716
2.258007668,0.203629911,0.011048496,0.004304886,0.203974856
2.262864959,0.180733353,-0.006067723,-0.050469398,0.187745898
2.267679647,0.17694065,-0.004275769,0.006799698,0.177122872
2.272577043,0.123130441,0.025924221,-0.031366348,0.129680447
2.277435376,0.140449941,0.027271658,-0.059692383,0.155026159
2.282291938,0.162256956,0.040423527,6.48499E-05,0.167216583
2.287147824,0.188631207,0.034533873,-0.007149696,0.191899554
2.292004647,0.236328125,0.052609548,0.007058144,0.242215946
2.296862147,0.260118812,0.032603562,0.042503357,0.265577341
2.301719543,0.281687826,0.04368943,0.05389595,0.290106137
2.306575011,0.294045299,0.054855064,0.041431427,0.301973971
2.311389855,0.287918091,0.05185616,0.057533264,0.298154264
2.316247355,0.260796964,0.05855231,0.040248871,0.270302425
2.321104022,0.245772988,0.072551191,-0.012498856,0.256562386
2.325960011,0.256931901,0.050940573,0.011171341,0.262171209
2.330816782,0.277554214,0.036752,0.02752018,0.281326166
2.33567423,0.312250257,0.015675858,-0.008495331,0.312758894
2.340530949,0.334785938,-0.002908915,0.017516136,0.335256471
2.345386938,0.340280265,-0.021516725,0.01245594,0.341187307
2.350243657,0.338607818,-0.018715978,-0.040044785,0.341480786
2.355101157,0.33955735,-0.016055226,-0.016149521,0.340320101
2.359957928,0.371771663,-0.023027241,-0.018588066,0.372947637
2.364813866,0.342164665,-0.030113325,-0.042385101,0.346092426
2.369672459,0.379633039,-0.020638227,-0.020893097,0.380767255
2.374528032,0.405498683,-0.016223624,0.009885788,0.40594349
2.379384803,0.460224301,-0.016649947,0.004770279,0.460550088
2.384240741,0.467475742,-0.00051485,0.021043777,0.467949436
2.389097511,0.439289302,0.029730409,0.049041748,0.443017021
2.393955011,0.404215872,0.052714869,-0.011034012,0.407788031
2.398811678,0.383736879,0.059121981,0.005368233,0.388301711
2.403667668,0.356189638,0.05615668,0.02401638,0.361388181
2.408525636,0.338137895,0.048759341,-0.004955292,0.341671281
2.413381991,0.329613835,0.044028267,-0.002812386,0.332553271
2.418294178,0.359099329,0.048953339,0.032556534,0.363880042
2.423153293,0.388622791,0.049313992,0.017767906,0.392141864
2.428007616,0.449283093,0.028420091,0.017327309,0.450514412
2.432868136,0.422010034,0.040814966,0.019247055,0.42441581
2.437722772,0.431034535,0.036428168,-0.023975372,0.433235041
2.442578605,0.411903769,0.032017112,-0.019370079,0.413600061
2.447436053,0.390968949,0.032213658,-0.02431488,0.393046628
2.452293501,0.363202155,0.034605086,-0.033970833,0.366425074
2.457149751,0.361837089,0.03204833,-0.022176743,0.363929914
2.462004803,0.377041072,0.024587139,-0.008101463,0.377928738
2.466805168,0.368161947,0.024249136,0.00111866,0.368961368
2.471704855,0.371402979,0.035720855,-0.025351524,0.373977074
2.47657647,0.36750105,0.030472338,-0.02073288,0.369344606
2.481448293,0.342204571,0.046747774,-0.023266792,0.346165663
2.486289178,0.32661739,0.051129743,-0.030521393,0.332001093
2.491089543,0.320756793,0.048466191,0.007396698,0.324482054
2.495946261,0.324718744,0.041193232,-0.002486229,0.327330607
2.500802199,0.355169088,0.038900629,0.013821602,0.357560312
2.50565897,0.373903185,0.048609167,0.032360077,0.378435751
2.51051647,0.376154512,0.043988749,0.027000427,0.379679141
2.515373241,0.397727996,0.041836306,-0.006806374,0.399980202
2.520229126,0.359998167,0.035008937,-0.011841774,0.361890223
2.525085897,0.303531736,0.032925785,-0.028697014,0.306658019
2.529943397,0.294844419,0.042613536,-0.02877903,0.2992948
2.534800168,0.271866322,0.033170164,-0.028850555,0.275397733
2.539656053,0.263145864,0.033241481,-0.040780067,0.268353788
2.544512824,0.290111303,0.011886269,-0.035981178,0.292575626
2.549370324,0.309788674,0.019023374,-0.007478714,0.310462305
2.554227043,0.355823338,0.021351025,-0.036194801,0.358296215
2.55908298,0.349706769,0.007038668,-0.038561821,0.351896833
2.563939699,0.317936182,-0.009526759,-0.024289131,0.319004917
2.56879772,0.296220332,0.000218913,-0.024376869,0.297221744
2.573655168,0.277407885,-0.027985483,-0.019710541,0.279511766
2.578509855,0.278030396,-0.027462929,0.01103878,0.279601445
2.583366678,0.269274563,-0.043501601,0.001180649,0.272768351
2.588224178,0.277153432,-0.033231407,-0.025197983,0.280273598
2.593081053,0.28739658,-0.03966473,-0.020482063,0.290842913
2.597978501,0.297659129,-0.024612308,-0.039535522,0.301280235
2.602845428,0.310189664,-0.021615177,-0.029925346,0.312378569
2.607692772,0.294133246,-0.035261363,-0.025133133,0.297303556
2.612549491,0.257044494,-0.003679961,-0.020370483,0.257876658
2.617405688,0.222754329,-0.017468199,-0.037000656,0.226481076
2.622262459,0.21990791,-0.002648383,-0.015497208,0.220469195
2.627119751,0.212748036,0.023980334,-0.025024414,0.215552788
2.631976105,0.22742109,0.038518906,-0.027336121,0.232274238
2.636833136,0.204572231,0.055313706,-0.029616356,0.213977878
2.641704491,0.208482414,0.083902076,-0.053229332,0.230949859
2.646546834,0.160328537,0.095690429,-0.069503784,0.199230204
2.651403084,0.124608412,0.069457933,-0.050006866,0.15116993
2.656259386,0.082062259,0.100367859,-0.054392815,0.140593385
2.661116105,0.061006039,0.097785339,-0.068214417,0.133928772
2.665973449,0.070875324,0.107098147,-0.036790848,0.133592257
2.670788657,0.058932737,0.118704677,-0.053088188,0.142766324
2.675644491,0.08282581,0.134853929,-0.059735298,0.16915674
2.680501313,0.106756479,0.127129689,-0.030690193,0.168821774
2.685358813,0.114220694,0.136149779,-0.042222977,0.182663376
2.690215532,0.117280781,0.126162022,-0.058382988,0.18187966
2.695071418,0.089856297,0.121124908,-0.043514252,0.156967792
2.699928136,0.058323439,0.097313941,-0.03110981,0.117641178
2.704785688,0.036843888,0.08325918,-0.052016258,0.104858258
2.709642407,0.020405114,0.078878269,-0.039478302,0.090535552
2.714498345,0.035080984,0.079342127,-0.050754547,0.100508072
2.719355063,0.032900289,0.058437511,-0.069031715,0.096243179
2.72421272,0.051990032,0.040083885,-0.07288456,0.09809098
2.729069386,0.058928087,0.021885425,-0.071929932,0.095526993
2.733925324,0.044379234,0.001348808,-0.09469986,0.104591583
2.738781991,0.056009278,-0.014382571,-0.074519157,0.094323923
2.743639543,0.034306407,-0.015911996,-0.059232712,0.070275425
2.748496261,0.01532802,-0.02466397,-0.065408707,0.071565065
2.753352199,0.022852004,0.002154887,-0.059628487,0.063893771
2.758208918,0.035412371,0.002520561,-0.056232452,0.066501714
2.763066522,0.048336744,0.010006353,-0.076559067,0.091092583
2.767923188,0.056864768,0.031737313,-0.072925568,0.097770125
2.772779595,0.053797305,0.032039002,-0.064525604,0.089912186
2.777677303,0.029779434,0.011098072,-0.077512741,0.083774739
2.78254522,-0.003654242,0.021310955,-0.064240456,0.067781608
2.787391418,-0.018136263,0.007812679,-0.041558266,0.046011427
2.79226272,-0.00901109,-0.003018603,-0.049899101,0.050795984
2.797104126,-0.031172991,-0.018456683,-0.046280861,0.058773485
2.801920324,0.024811029,-0.026531771,-0.047422409,0.059736144
2.806819438,0.056830227,-0.048698664,-0.055631638,0.093252955
2.81167423,0.090849519,-0.056387648,-0.08273983,0.135200153
2.816531053,0.093900204,-0.085435182,-0.071593285,0.145746413
2.821388761,0.090151459,-0.085745126,-0.07710743,0.146373044
2.826245532,0.077395886,-0.10035333,-0.075395584,0.147463244
2.831101261,0.053218246,-0.093589857,-0.080767632,0.134590688
2.83595798,0.020151675,-0.084560499,-0.069413185,0.11124189
2.840816418,0.004215539,-0.092280358,-0.079469681,0.121855921
2.84567272,-0.01385951,-0.085801244,-0.070404053,0.111851107
2.850486938,-0.031904459,-0.079377711,-0.092243195,0.125807482
2.855343553,-0.042565644,-0.072992161,-0.099606514,0.130618326
2.860201105,-0.062869012,-0.073716715,-0.099760056,0.139063782
2.865057824,-0.097490847,-0.057862744,-0.071400642,0.133979902
2.869913813,-0.110696375,-0.044511586,-0.074117661,0.14045781
2.87477048,-0.138387978,-0.021825001,-0.072052002,0.157540643
2.879627928,-0.132845223,0.000738919,-0.062859535,0.146968433
2.884484803,-0.125038862,0.025492609,-0.063206673,0.142406719
2.889340688,-0.12199676,0.035803437,-0.080127716,0.150284885
2.894197459,-0.116375983,0.038914874,-0.0944767,0.154866341
2.899054907,-0.096272588,0.044451654,-0.094397545,0.141969212
2.903911626,-0.10205543,0.023835942,-0.101365089,0.145802416
2.908767668,-0.112313628,0.010571703,-0.101088524,0.151476076
2.913624334,-0.124689639,0.004603043,-0.086511612,0.151831989
2.918481834,-0.134649634,-0.022614971,-0.079137802,0.157812397
2.923338657,-0.127973974,-0.030550614,-0.069414139,0.148758195
2.928194595,-0.128717065,-0.047912344,-0.055005074,0.147950105
2.933051366,-0.084578872,-0.058002144,-0.052567482,0.115243978
2.937908761,-0.081345439,-0.05613254,-0.069119453,0.120604483
2.942765532,-0.064133406,-0.070893362,-0.076024055,0.122141801
2.94762147,-0.061433077,-0.09028171,-0.09234333,0.143010841
2.952478241,-0.089681149,-0.066820964,-0.077630997,0.136140814
2.957376834,-0.105550885,-0.067281321,-0.086715698,0.152274022
2.962233397,-0.126031041,-0.060687035,-0.069568634,0.156225908
2.967089647,-0.184104085,-0.04944624,-0.083363533,0.208059423
2.971946001,-0.212978363,-0.071532577,-0.087477684,0.241099643
2.976803605,-0.241383672,-0.050745934,-0.096235275,0.264768682
2.98166022,-0.255202651,-0.049178749,-0.100117683,0.278514799
2.986516574,-0.278355002,-0.05241853,-0.120535851,0.307828038
2.991372824,-0.287136436,-0.065115407,-0.107506752,0.313440665
2.996231157,-0.312694669,-0.061074153,-0.099318504,0.333724697
3.001046261,-0.336132646,-0.049948841,-0.072221756,0.347413333
3.005943657,-0.373652577,-0.074488312,-0.071427345,0.38764239
3.010800168,-0.404248476,-0.048970193,-0.056418419,0.4110936
3.015658032,-0.434995174,-0.054457068,-0.043920517,0.440585277
3.020514074,-0.468276978,-0.050273165,-0.055283546,0.474201423
3.025371209,-0.489703178,-0.062663063,-0.066552162,0.498161673
3.030185949,-0.497038007,-0.08437933,-0.087229729,0.511640183
3.035043397,-0.513723493,-0.089144096,-0.093434334,0.529706024
3.039900168,-0.551820278,-0.117595866,-0.094826698,0.572124558
3.044756053,-0.558863759,-0.124476999,-0.096189499,0.58058216
3.049612824,-0.582645059,-0.140896335,-0.095158577,0.60694497
3.054470376,-0.60160017,-0.142975241,-0.077498436,0.623193944
3.059327043,-0.613518715,-0.142628461,-0.081352234,0.635111232
3.064183032,-0.644512415,-0.140017986,-0.089918137,0.665647475
3.069039803,-0.661352634,-0.154203385,-0.093686104,0.685523943
3.073897251,-0.680834055,-0.1564973,-0.087961197,0.704104813
3.07875397,-0.657829881,-0.158927023,-0.096568108,0.683610525
3.083610011,-0.692463636,-0.156638056,-0.095654488,0.71637361
3.088466678,-0.727158785,-0.142537177,-0.087656975,0.74616385
3.09332423,-0.75022316,-0.143757701,-0.075493813,0.767593891
3.098180949,-0.792611599,-0.125849098,-0.082492828,0.806768994
3.103036886,-0.804040194,-0.124695808,-0.077537537,0.817338208
3.107893605,-0.846700072,-0.140097648,-0.074986458,0.861482056
3.112751105,-0.851339936,-0.148240864,-0.072468758,0.867183234
3.117607824,-0.884893894,-0.156193346,-0.072363853,0.901482164
3.122463761,-0.918690562,-0.173689395,-0.086634636,0.938970668
3.127320532,-0.952951908,-0.205457747,-0.084225655,0.97848055
3.132178136,-0.980509996,-0.198868752,-0.077118874,1.003442053
3.137076105,-1.044422984,-0.21392414,-0.067721367,1.068255162
3.141932251,-1.075501323,-0.212299734,-0.046513557,1.097240987
3.146788449,-1.095157743,-0.215580881,-0.068464279,1.118272308
3.151657876,-1.136791587,-0.214196086,-0.083294868,1.159790115
3.15650298,-1.135724545,-0.217743963,-0.088610649,1.159799345
3.161359074,-1.103860497,-0.20936507,-0.093960762,1.127461909
3.166215636,-1.167777061,-0.234471977,-0.104095459,1.195623786
3.171073449,-1.171892881,-0.237977117,-0.116606712,1.201483732
3.175930063,-1.226319551,-0.24871394,-0.114771843,1.256539232
3.180785584,-1.240261674,-0.221128702,-0.10102272,1.26386412
3.18565397,-1.307154059,-0.198373914,-0.101707458,1.326027282
3.190500011,-1.355489373,-0.197112262,-0.081000328,1.37213911
3.195371574,-1.416241407,-0.198258728,-0.058037758,1.431228364
3.200172095,-1.475512981,-0.204264015,-0.073554993,1.491399572
3.205070116,-1.466074228,-0.169616401,-0.053329468,1.476816644
3.209887147,-1.524570704,-0.182866096,-0.100264549,1.538768605
3.214742407,-1.531103134,-0.169770986,-0.061214447,1.541702372
3.219598449,-1.54298234,-0.17081961,-0.079702377,1.554453701
3.224455168,-1.538628817,-0.176428705,-0.081526756,1.550855356
3.229312668,-1.525065303,-0.174536288,-0.066674232,1.536467555
3.234169386,-1.52626729,-0.19383949,-0.075820923,1.540394236
3.239025324,-1.558939815,-0.229618043,-0.044388771,1.57638452
3.243882147,-1.64459753,-0.32981658,-0.032216072,1.677652493
3.248739595,-1.580269814,-0.339130014,-0.072807312,1.617888363
3.253596313,-1.571986437,-0.360752165,-0.09203434,1.615473244
3.258452251,-1.612375975,-0.380551189,-0.104252815,1.659953054
3.263309022,-1.464435339,-0.329250693,-0.102252007,1.504470789
3.268166522,-1.496576071,-0.328780681,-0.131464005,1.537894488
3.273023241,-1.500611067,-0.316969335,-0.167954445,1.542890738
3.277879178,-1.45933342,-0.300890416,-0.178131104,1.500639784
3.282735949,-1.415325403,-0.25635913,-0.166703224,1.447983413
3.287593709,-1.397099614,-0.240755916,-0.143223763,1.424908344
3.292450168,-1.400068402,-0.210869223,-0.160345078,1.424909788
3.297306157,-1.39096272,-0.192786336,-0.153506279,1.412624521
3.302162876,-1.42495358,-0.174606532,-0.125169754,1.44105781
3.307020376,-1.432938218,-0.144205093,-0.063468933,1.441573915
3.311877668,-1.47518146,-0.106414706,-0.035484314,1.479440288
3.316774595,-1.518891096,-0.104429811,-0.015021324,1.522550947
3.321631157,-1.537974954,-0.083239287,0.026575089,1.540455119
3.326488397,-1.530007958,-0.073964238,0.022356987,1.531957864
3.331345272,-1.501972079,-0.083872467,0.027420998,1.504561939
3.336160063,-1.453515172,-0.065108418,-0.001194954,1.454973158
3.341058397,-1.387012243,-0.043964893,-0.065815926,1.389268732
3.345926053,-1.325489163,-0.029984176,-0.130344391,1.332220039
3.350784022,-1.24695456,-0.00882566,-0.166002274,1.257986615
3.355628397,-1.189276218,0.000456274,-0.213391304,1.208269002
3.360485168,-1.164434552,0.016771883,-0.243825912,1.18980679
3.365342459,-1.153513074,0.018516302,-0.221530914,1.174738784
3.370200376,-1.156722903,0.027179837,-0.199222565,1.174068247
3.375056209,-1.183889747,0.037867963,-0.157836914,1.194965023
3.379912563,-1.199584007,0.060013086,-0.15008831,1.210425488
3.384769334,-1.21629405,0.069693178,-0.132993698,1.225526695
3.389584959,-1.226858497,0.095818758,-0.104168892,1.234995613
3.394440793,-1.193246484,0.140888065,-0.097129822,1.205454611
3.399297511,-1.146502852,0.164380312,-0.087910652,1.161558419
3.404155063,-1.117496133,0.199979693,-0.078853607,1.137983908
3.409011782,-1.074884176,0.219018757,-0.081860542,1.100021071
3.413867772,-1.035192966,0.253428906,-0.072454453,1.06822298
3.418724438,-0.984084249,0.257206738,-0.067866325,1.019403233
3.423581991,-0.938160539,0.268547624,-0.056166649,0.977454713
3.428438709,-0.933040261,0.25883171,-0.096776962,0.973100079
3.433294699,-0.887837052,0.266126841,-0.108576775,0.933202573
3.438151418,-0.879032969,0.271058679,-0.113208771,0.926816052
3.443008918,-0.863820672,0.259229928,-0.153510094,0.914850621
3.447865636,-0.854291916,0.249554455,-0.143750191,0.901529934
3.452721574,-0.848138094,0.253702641,-0.134221077,0.895387376
3.457578293,-0.821542382,0.240705162,-0.151026726,0.869298529
3.462435845,-0.769695997,0.251112521,-0.163033485,0.825874896
3.467292616,-0.742375731,0.270562202,-0.182098389,0.810854768
3.472148553,-0.691604376,0.282464683,-0.191487312,0.771213525
3.47700522,-0.645842314,0.298905581,-0.191239357,0.73690524
3.481862824,-0.611944437,0.317616165,-0.193264008,0.716035613
3.486720063,-0.585113764,0.338740826,-0.185677528,0.701127384
3.49157548,-0.603502035,0.352829903,-0.151975632,0.715402152
3.496432563,-0.619607687,0.340928376,-0.120926857,0.717474144
3.501346678,-0.63873601,0.338807195,-0.080723763,0.727523423
3.506202095,-0.66074717,0.327536225,-0.067029953,0.740513212
3.511058813,-0.671985149,0.335528314,-0.055976868,0.753177735
3.515915636,-0.689386964,0.331719816,-0.059441566,0.767349804
3.520772563,-0.655750036,0.328022122,-0.086765289,0.738332471
3.525629543,-0.597385645,0.317311764,-0.123459816,0.687603585
3.530485949,-0.575819016,0.318574011,-0.140892029,0.672984029
3.535287407,-0.511613131,0.312725186,-0.167590141,0.622600589
3.540197824,-0.474655986,0.287875652,-0.189331055,0.586529577
3.545057459,-0.444262147,0.2679528,-0.191701889,0.553097796
3.549914543,-0.427609563,0.267143309,-0.224743843,0.552019276
3.554769282,-0.431763291,0.244803801,-0.21224308,0.539810676
3.559628657,-0.426070929,0.265163839,-0.216364861,0.546499817
3.564482668,-0.470144749,0.232846335,-0.218001366,0.568135631
3.569283501,-0.487681389,0.238519549,-0.198192596,0.577931672
3.574139907,-0.515568733,0.217714801,-0.183365822,0.588926038
3.578997459,-0.541786432,0.204034835,-0.161590576,0.601060951
3.583854126,-0.550006628,0.211659223,-0.161441803,0.611040402
3.588710688,-0.554456949,0.202604055,-0.139972687,0.606682178
3.593566886,-0.5645473,0.188924059,-0.132949829,0.609984927
3.598424334,-0.501549482,0.206507578,-0.125956535,0.556832391
3.603281157,-0.465312481,0.20298633,-0.12368679,0.522510839
3.608137043,-0.415132403,0.204633683,-0.135579109,0.482277463
3.612993813,-0.388719797,0.180613086,-0.147232056,0.453212363
3.617851261,-0.35970068,0.171326116,-0.144402504,0.423779778
3.62270798,-0.363699377,0.126851261,-0.158073425,0.416360044
3.62756397,-0.374670446,0.099418446,-0.171532631,0.423893163
3.632420688,-0.402466595,0.064971089,-0.196689606,0.452644898
3.637278293,-0.440056384,0.042440474,-0.212103844,0.490345649
3.642134959,-0.43528831,0.017367795,-0.246355057,0.500468148
3.646990897,-0.453466117,-0.000844866,-0.244010925,0.514950061
3.651847616,-0.429296315,-0.002773866,-0.258357048,0.501050281
3.65670522,-0.379340231,-0.031412378,-0.265437126,0.464050231
3.661561886,-0.353477776,-0.048351899,-0.253273964,0.437529593
3.66641772,-0.305959463,-0.043981433,-0.226655006,0.383298906
3.671274751,-0.293975353,-0.046787091,-0.214272499,0.366774105
3.676132616,-0.257525921,-0.039854288,-0.206534386,0.33251228
3.681045636,-0.256898761,-0.059026666,-0.174779892,0.316273823
3.685901678,-0.253151774,-0.049097434,-0.162039757,0.304554202
3.690744074,-0.263610005,-0.072294742,-0.151589394,0.312563768
3.695600584,-0.257649541,-0.08082664,-0.157797813,0.312756106
3.700457824,-0.249957919,-0.100944541,-0.16391468,0.315494507
3.705313241,-0.252532274,-0.130298465,-0.174720764,0.33358295
3.710170063,-0.251211852,-0.166598767,-0.192599297,0.357710823
3.715027563,-0.222028166,-0.174092531,-0.224703789,0.360688936
3.71988397,-0.198244721,-0.193516061,-0.235138893,0.363372721
3.724740011,-0.131748199,-0.222580105,-0.262170792,0.368283879
3.72959673,-0.084357485,-0.251822591,-0.262732506,0.373576193
3.734413553,-0.02903606,-0.252544224,-0.258363724,0.362454813
3.739311522,0.03127715,-0.272745669,-0.249089241,0.370693822
3.744167095,0.090419248,-0.290732503,-0.242077827,0.388976482
3.748982303,0.107366838,-0.301896185,-0.244517326,0.403060376
3.753840324,0.103063844,-0.315609813,-0.2516222,0.416587856
3.758696626,0.086941123,-0.305492818,-0.234701157,0.394929429
3.763552563,0.084779158,-0.302658588,-0.258338928,0.406852219
3.76840923,0.06033694,-0.309312403,-0.248356819,0.401242843
3.773266834,0.087644696,-0.311036766,-0.250216484,0.408697628
3.778123553,0.109206945,-0.317283094,-0.225637436,0.404359952
3.782979438,0.168302849,-0.323204309,-0.205730438,0.418463723
3.787836261,0.231689423,-0.33346647,-0.176138878,0.442611319
3.792693761,0.30222255,-0.343340158,-0.170352936,0.488099433
3.797550532,0.392268091,-0.35521841,-0.164447784,0.554163738
3.802406522,0.420800507,-0.359712601,-0.156045914,0.57516654
3.807263136,0.454896778,-0.378407329,-0.157115936,0.612216141
3.812120636,0.482593507,-0.394606233,-0.179608345,0.648744733
3.816977355,0.513240278,-0.413274944,-0.199586868,0.688510479
3.821833345,0.52268976,-0.415397823,-0.226615906,0.705063618
3.826690063,0.515274167,-0.444037288,-0.263058662,0.729298595
3.831547616,0.505068958,-0.463469952,-0.296931267,0.747038972
3.836404334,0.520489693,-0.45936197,-0.299528122,0.756068804
3.841260272,0.537535548,-0.450754941,-0.309132576,0.766607743
3.846117095,0.556251466,-0.45911625,-0.311383247,0.785597194
3.850974907,0.591156483,-0.446051568,-0.275210381,0.790043506
3.855873813,0.656626701,-0.435401857,-0.236522675,0.822603414
3.860728241,0.703576684,-0.417501509,-0.195404053,0.841136377
3.865585428,0.770225346,-0.425682575,-0.137514114,0.890709195
3.87040147,0.828398407,-0.400081336,-0.108351707,0.926309391
3.875299803,0.843825936,-0.39808917,-0.095870018,0.93792764
3.880155428,0.874640763,-0.393350244,-0.090547562,0.963285907
3.885012251,0.858063221,-0.395558327,-0.104286194,0.950586394
3.889871366,0.841676295,-0.407044232,-0.139431953,0.945275231
3.894726678,0.815491378,-0.399152249,-0.188741684,0.927346823
3.899583032,0.800834596,-0.415127039,-0.218702316,0.928168741
3.90443923,0.80469799,-0.416688532,-0.25083828,0.940259555
3.909296782,0.812761426,-0.413588822,-0.244494438,0.944147435
3.914153553,0.851569772,-0.420291007,-0.245174408,0.980778312
3.919009438,0.883118987,-0.427276999,-0.243335724,1.010780418
3.923866678,0.922155619,-0.42264992,-0.212726593,1.036463479
3.928682303,0.950125813,-0.418385535,-0.191714287,1.055717711
3.93353897,0.964143038,-0.419154465,-0.187405586,1.067887221
3.938394907,0.94789052,-0.393915921,-0.159187317,1.038752518
3.943251678,0.975401759,-0.376005173,-0.166857719,1.05859812
3.948109699,0.955526233,-0.353342533,-0.148174286,1.029483825
3.952965949,0.966901183,-0.313912392,-0.148561478,1.027379871
3.957821834,0.947136045,-0.303068101,-0.13210392,1.00317915
3.962678553,0.939071059,-0.294299662,-0.158559799,0.996798854
3.967536209,0.921056271,-0.28042382,-0.168081284,0.977360471
3.972392876,0.931434512,-0.256647885,-0.146346092,0.977167113
3.977248813,0.927416325,-0.266042531,-0.150826454,0.976538932
3.982105532,0.947499275,-0.265566468,-0.114569664,0.990659696
3.986963136,0.987215757,-0.241068169,-0.095074654,1.020660572
3.991819855,0.972716808,-0.254795223,-0.051725388,1.006863502
3.996675793,1.014345765,-0.235091984,-0.058737755,1.042888151
4.001532511,1.030610085,-0.229937881,-0.056255341,1.057446566
4.006389959,1.035771608,-0.234580457,-0.082539558,1.065205893
4.01124673,1.022274971,-0.198872089,-0.12314415,1.048694763
4.01610272,0.989913821,-0.192184746,-0.173230171,1.02316814
4.020959438,0.909608126,-0.176109493,-0.225540161,0.953556427
4.025816938,0.893455863,-0.155429319,-0.282393456,0.949825098
4.030673761,0.90073669,-0.144506574,-0.267268181,0.950600344
4.035529907,0.90996027,-0.133649468,-0.244818687,0.95174895
4.040428032,0.92122376,-0.108442336,-0.172029495,0.943401878
4.045285063,0.949694157,-0.085572869,-0.116075516,0.960580675
4.050141834,0.990731955,-0.069784939,-0.036325455,0.993850734
4.054997511,1.020758867,-0.05387301,0.007334709,1.022205833
4.05985423,1.027933359,-0.013926335,0.048399925,1.029166404
4.064712095,1.060276985,-0.004855596,0.053350449,1.06162947
4.069527563,1.031708002,0.004407935,0.034170151,1.032283116
4.074425272,1.027578592,0.030640759,-0.004162788,1.028043748
4.079281574,0.988241673,0.045157082,-0.032969475,0.989822081
4.084149282,0.972998142,0.040773891,-0.08562851,0.977609399
4.088996313,0.94819665,0.062854059,-0.126207352,0.958621831
4.09385173,0.961488008,0.058751211,-0.166640282,0.977588809
4.098708553,0.955355406,0.071309529,-0.192560196,0.977173695
4.103565897,0.980211258,0.086175576,-0.182500839,1.000773149
4.10838147,1.005349159,0.088869721,-0.172475815,1.023900711
4.113237407,1.026018143,0.105603293,-0.138583183,1.040706771
4.118094126,1.066538095,0.098141633,-0.114425659,1.077139044
4.122951626,1.091130733,0.11903318,-0.076112747,1.100240122
4.127808345,1.116614342,0.142084152,-0.042813301,1.126431744
4.132664282,1.130861044,0.167292044,-0.021656036,1.143373217
4.137521001,1.138489723,0.187608331,-0.017366409,1.153974579
4.142378553,1.153627396,0.208048671,-0.046607018,1.173163514
4.147235272,1.137899399,0.219148055,-0.051925659,1.159972925
4.152091782,1.146167278,0.247404709,-0.076346397,1.175047783
4.15694798,1.147260666,0.264089376,-0.095920563,1.181165098
4.16180548,1.184392452,0.283563197,-0.06287384,1.219486239
4.166662199,1.229058027,0.267493248,-0.049068451,1.258786711
4.171518188,1.274356365,0.287614733,-0.006733894,1.306427084
4.176374959,1.315725327,0.279152811,0.040119171,1.345611004
4.181232407,1.372467518,0.273084372,0.053177834,1.400382106
4.186089178,1.380006552,0.271683335,0.063563347,1.407931183
4.190945168,1.390837431,0.277293235,0.03305912,1.418595504
4.195801834,1.395273685,0.28497985,-0.045427322,1.424803781
4.200659438,1.37379837,0.278073967,-0.099999428,1.405221327
4.205516157,1.357193232,0.275738001,-0.16407299,1.394605629
4.210372095,1.345056772,0.285108685,-0.218399048,1.392179165
4.215230011,1.358897924,0.289562166,-0.227119446,1.407846959
4.220128449,1.381857872,0.312999219,-0.218957901,1.433681363
4.224984022,1.428576231,0.302978396,-0.170107841,1.470225369
4.229838761,1.477801323,0.324028105,-0.095046997,1.515890792
4.234712616,1.532214165,0.328327179,-0.020195007,1.567126932
4.239554647,1.577965021,0.330243319,0.061476707,1.613323788
4.244411938,1.605626106,0.341733515,0.111663818,1.645383176
4.249267355,1.658406496,0.346160024,0.130361557,1.699156557
4.254124543,1.652691126,0.338861376,0.13431263,1.692410964
4.258981626,1.662398577,0.331790864,0.104484558,1.698402552
4.263838501,1.644188166,0.334471941,0.072080612,1.679411152
4.268653136,1.633599758,0.330170095,0.018079758,1.666729534
4.273551209,1.625463486,0.326068223,-0.026298523,1.658054173
4.278408709,1.610193253,0.305345535,-0.087364197,1.641216229
4.28326522,1.604337931,0.29181385,-0.122001648,1.635218616
4.288080063,1.605528116,0.268588334,-0.118296623,1.632131832
4.292936522,1.604346514,0.252357095,-0.133728981,1.629569047
4.297795428,1.622573376,0.228683099,-0.115748405,1.642692306
4.302650741,1.643676043,0.221429646,-0.083590508,1.660629216
4.307506782,1.672654152,0.206536531,-0.051688194,1.686149732
4.312363449,1.678525925,0.205661774,-0.036813736,1.691479026
4.317221001,1.675611258,0.209279388,-0.010231972,1.688660902
4.322077772,1.673372746,0.207859159,-0.000619888,1.686233127
4.326933657,1.664411783,0.206470579,-0.024627686,1.677350055
4.33179048,1.627048969,0.209944874,-0.04629612,1.641191192
4.336647928,1.611363411,0.206439674,-0.046448708,1.625197484
4.341504855,1.588579416,0.200818628,-0.056179047,1.602207467
4.346360584,1.589902163,0.188335359,-0.04681778,1.601702531
4.351218449,1.579605103,0.166630179,0.005475998,1.588379011
4.356074959,1.598686934,0.166776225,0.038379669,1.607820643
4.360931626,1.613804102,0.135979936,0.078166962,1.621408121
4.365787511,1.622740746,0.114810072,0.100871086,1.629921426
4.370644282,1.608823538,0.088835627,0.099322319,1.614332638
4.375501886,1.583924294,0.072353527,0.06880188,1.58706802
4.380358553,1.545440197,0.036562789,0.011805534,1.545917724
4.385214438,1.497944832,0.022103831,-0.050046921,1.498943626
4.390071313,1.436446667,-0.009258125,-0.097556114,1.439785378
4.39495397,1.386907578,-0.014480807,-0.178455353,1.398416474
4.399805636,1.346668243,-0.031872671,-0.213726044,1.363895174
4.404683866,1.311160564,-0.044291988,-0.20911026,1.328469385
4.409539647,1.323233843,-0.044751149,-0.175989151,1.335635672
4.41439673,1.304400206,-0.061939232,-0.119422913,1.311319258
4.419253866,1.30036068,-0.081376106,-0.034955978,1.303373273
4.424110116,1.309007883,-0.095992401,0.027210236,1.312804851
4.428966574,1.294851303,-0.108097494,0.067193985,1.301091848
4.433824126,1.279618263,-0.117632821,0.111248016,1.289820337
4.438681105,1.263317585,-0.131764621,0.111857414,1.275086396
4.443537876,1.222105503,-0.138431638,0.102656364,1.234197516
4.448393241,1.167778969,-0.142354995,0.079065323,1.179077601
4.453252251,1.104929209,-0.15787442,0.008044243,1.116179913
4.458107772,1.052376032,-0.168273717,-0.024469376,1.066025378
4.462963605,1.024008512,-0.175913215,-0.063826561,1.040967205
4.467779334,0.979094744,-0.211836994,-0.081430435,1.005053404
4.472637147,0.965597868,-0.218875557,-0.096556664,0.994790903
4.477493241,0.950007439,-0.247244492,-0.092600822,0.986011605
4.48234923,0.913464546,-0.277901262,-0.088750839,0.958917775
4.487205949,0.915781975,-0.284807384,-0.082713127,0.962607569
4.492063449,0.923567533,-0.30609113,-0.067426682,0.975302582
4.496920272,0.917891979,-0.299050927,-0.043001175,0.966336506
4.501776209,0.891689062,-0.318431884,-0.037981033,0.947602663
4.506632876,0.86401701,-0.314116716,-0.037926674,0.920126696
4.511490532,0.841787815,-0.319396913,-0.054600716,0.901999086
4.516347147,0.803356886,-0.308092654,-0.071175575,0.863347747
4.52120423,0.798551798,-0.308591276,-0.104225159,0.862424741
4.526059855,0.748738289,-0.31600529,-0.09425354,0.818139412
4.530917355,0.737398624,-0.318237424,-0.081980705,0.807311975
4.535775011,0.731081247,-0.308264613,-0.053210258,0.795196953
4.540629959,0.737082481,-0.307556093,-0.020007133,0.798925291
4.545486782,0.765097618,-0.318464935,0.038879395,0.829642024
4.550344334,0.789052963,-0.331495464,0.044830322,0.857031843
4.555201105,0.797218323,-0.339538455,0.062364578,0.868753565
4.560056938,0.787409782,-0.345164359,0.04389286,0.860859561
4.564913761,0.754755974,-0.341229081,0.008787155,0.828354441
4.569771313,0.730196238,-0.358747929,-0.071271896,0.816680051
4.574628032,0.682395935,-0.359568775,-0.126946449,0.781709228
4.579526209,0.654211998,-0.362918556,-0.182164192,0.769991564
4.584381938,0.628264189,-0.363955736,-0.213031769,0.756678401
4.589249751,0.611646891,-0.348575294,-0.226876259,0.739654981
4.594096053,0.613780975,-0.369106174,-0.211972237,0.746926156
4.598952251,0.641957283,-0.346900046,-0.168642044,0.748925186
4.603808345,0.658153057,-0.353538245,-0.137529373,0.759650621
4.608666626,0.679383039,-0.329369992,-0.094860077,0.76094963
4.613523345,0.703555584,-0.314912379,-0.071668625,0.774142531
4.618379282,0.716520786,-0.310070574,-0.041702271,0.781847093
4.623235584,0.718436241,-0.305123836,-0.021640778,0.780845382
4.628093866,0.716585159,-0.281122744,-0.025657654,0.770183487
4.632950168,0.701195478,-0.27134949,-0.020235062,0.752140347
4.63781647,0.681720495,-0.263768911,-0.064758301,0.733832753
4.642678241,0.631647348,-0.253614902,-0.106481552,0.688939194
4.647539438,0.629428864,-0.252778411,-0.124022484,0.689535493
4.652335688,0.591015339,-0.223369703,-0.174446106,0.655457549
4.65719173,0.59579587,-0.23434408,-0.184041023,0.66615386
4.662048449,0.583760023,-0.228641093,-0.210066795,0.661196319
4.666906001,0.578904867,-0.225437045,-0.214428902,0.657215688
4.671762772,0.576640368,-0.239140198,-0.194982529,0.654003313
4.676618709,0.603348255,-0.236428201,-0.189972878,0.675290386
4.681475376,0.611543179,-0.226990893,-0.166089058,0.673123689
4.686332928,0.610764623,-0.220322892,-0.170939445,0.671413356
4.691189699,0.598758936,-0.199792922,-0.175801277,0.655237029
4.696045636,0.554080248,-0.174896896,-0.178256035,0.607757402
4.700902303,0.5455755,-0.150349498,-0.213879585,0.604981053
4.705759855,0.501488805,-0.135470957,-0.222990036,0.565303421
4.710616626,0.464665055,-0.089714572,-0.227138519,0.524932591
4.715472511,0.449231386,-0.091672421,-0.204989433,0.502228373
4.720329282,0.42896235,-0.048296452,-0.199507713,0.475546604
4.725186782,0.418198466,-0.038205281,-0.174955368,0.454927446
4.730043553,0.431385517,-0.037368253,-0.157654762,0.460808935
4.734899543,0.428193331,-0.00778845,-0.135717392,0.44925427
4.739756209,0.423187256,0.002708226,-0.132951736,0.44358872
4.744613866,0.383321881,0.003788814,-0.146849632,0.410505584
4.749470532,0.365793943,0.011959076,-0.163013458,0.40065149
4.754326782,0.30388844,0.005746141,-0.207521439,0.368030365
4.759224699,0.266287684,0.023382813,-0.23669529,0.357044181
4.764081782,0.235633492,0.009664029,-0.270454407,0.358834394
4.768938605,0.195348024,0.021965638,-0.282521248,0.344182503
4.773794595,0.149872541,0.031629637,-0.311127663,0.346789035
4.77865173,0.120802999,0.057838395,-0.310834885,0.338462657
4.783509074,0.08169508,0.076619118,-0.310361862,0.329953119
4.788365428,0.056754351,0.112000972,-0.307357788,0.332015186
4.793222511,0.055713892,0.10902667,-0.256421089,0.284152472
4.798077876,0.054909706,0.139602959,-0.238945007,0.282132555
4.802935688,0.028301358,0.146301761,-0.216659546,0.26295728
4.807792511,0.014272571,0.177092969,-0.196748734,0.265095625
4.812649178,-0.006256461,0.203312799,-0.181602478,0.272680578
4.817505793,-0.050013304,0.215468988,-0.18076992,0.285667603
4.82236397,-0.088499427,0.218414024,-0.196591377,0.306895754
4.827219491,-0.143564105,0.228786722,-0.209877014,0.342056103
4.83203423,-0.2086429,0.24651511,-0.263605118,0.416880339
4.836890949,-0.266559422,0.240462422,-0.281259537,0.456051564
4.841748501,-0.315350533,0.244005501,-0.305887222,0.502545158
4.84660522,-0.345473528,0.221217841,-0.306397438,0.512024103
4.851461157,-0.371241152,0.241350204,-0.323487282,0.548373901
4.856317876,-0.370776772,0.254076779,-0.309350014,0.545644441
4.861175428,-0.379860729,0.268975854,-0.29990387,0.553700744
4.866032147,-0.383794963,0.274082959,-0.287995338,0.552595111
4.870888084,-0.375234872,0.28621152,-0.29037571,0.55410856
4.875744803,-0.423408151,0.281445622,-0.275947571,0.578474859
4.880602459,-0.435109377,0.305286795,-0.280579567,0.60103668
4.885459074,-0.491930276,0.317230433,-0.280311584,0.649003181
4.890315116,-0.510238886,0.343596935,-0.279919624,0.675838421
4.895171782,-0.559652388,0.336544722,-0.276999474,0.709367221
4.900029282,-0.604617238,0.344054371,-0.281095505,0.750300005
4.904886105,-0.633313239,0.366105735,-0.26589489,0.778343857
4.909742043,-0.669733882,0.366809577,-0.276854515,0.81224452
4.914598761,-0.697119474,0.363050133,-0.251777649,0.825332021
4.919456261,-0.710404396,0.376236379,-0.252898216,0.842725179
4.92431298,-0.709501088,0.382372737,-0.251499176,0.844305951
4.92916897,-0.687018633,0.362278938,-0.249984741,0.81592463
4.934026105,-0.693009257,0.370980799,-0.248362541,0.824361896
4.938924178,-0.681548297,0.362970054,-0.260989189,0.815089381
4.94379647,-0.684150457,0.357310265,-0.285440445,0.822926924
4.94863673,-0.681840062,0.356324732,-0.293002129,0.823239596
4.953504595,-0.719680965,0.340843856,-0.310007095,0.854528891
4.958351001,-0.750630617,0.341890752,-0.317295074,0.883748705
4.963207772,-0.786479056,0.352281868,-0.302931786,0.913465646
4.968064126,-0.822873473,0.340914905,-0.329109192,0.949555994
4.972921261,-0.835891604,0.35330689,-0.316874504,0.961223171
4.977778553,-0.823176026,0.336940229,-0.292584419,0.936350966
4.982634803,-0.82763207,0.354135931,-0.270602226,0.940006737
4.987490741,-0.798784792,0.35936141,-0.250926018,0.911132062
4.99236173,-0.79384321,0.362375766,-0.238333702,0.904602781
4.997205428,-0.779349804,0.356114745,-0.235203743,0.888551985
5.002021209,-0.767336965,0.354873955,-0.217616081,0.872982417
5.006918241,-0.783305407,0.351571023,-0.228609085,0.888499667
5.011733501,-0.787799418,0.32929194,-0.220355034,0.881826199
5.016590949,-0.801566243,0.316802293,-0.233505249,0.892970793
5.021447772,-0.813167572,0.299608052,-0.234575272,0.897792873
5.026303657,-0.834799051,0.284828722,-0.280979156,0.925724659
5.031160532,-0.849875927,0.274737537,-0.269857407,0.933055639
5.036017928,-0.832164824,0.259643763,-0.277805328,0.914925668
5.040874699,-0.834260941,0.251569659,-0.261766434,0.909835301
5.045730636,-0.846458554,0.224086612,-0.281551361,0.919770658
5.050587355,-0.832574666,0.210753739,-0.2821064,0.903981047
5.055444959,-0.79969871,0.211615235,-0.275407791,0.871864947
5.06030173,-0.793119788,0.205192119,-0.251887321,0.857082275
5.065157563,-0.769588113,0.186825782,-0.26654911,0.835594498
5.070014282,-0.755302131,0.192405432,-0.242821693,0.816372179
5.074871834,-0.764832377,0.186094046,-0.247711182,0.825203241
5.079728553,-0.7863217,0.184703141,-0.214241982,0.835653452
5.084584543,-0.815266013,0.169098467,-0.209427834,0.858552841
5.089441261,-0.839866042,0.153641015,-0.194996834,0.875787814
5.094299022,-0.872491896,0.147836685,-0.199687958,0.907178634
5.099155532,-0.88690424,0.142171741,-0.180450439,0.916173725
5.104011522,-0.897526503,0.110227138,-0.189933777,0.924001453
5.108868241,-0.901847601,0.102367193,-0.182665825,0.925837427
5.113770272,-0.889906406,0.070699006,-0.20646286,0.916274344
5.118623449,-0.871477485,0.065428793,-0.208701134,0.898504366
5.123479178,-0.860416293,0.04816404,-0.232411385,0.892553093
5.128336261,-0.835086048,0.028553843,-0.241686821,0.869825585
5.133152928,-0.850475967,0.001686484,-0.241329193,0.884054294
5.138050272,-0.855708718,-0.022770405,-0.238459587,0.888605017
5.142906678,-0.868211269,-0.032956451,-0.242714882,0.902101685
5.147773084,-0.897396445,-0.052904278,-0.244510651,0.93161403
5.152632199,-0.919772744,-0.075485259,-0.231944084,0.951566069
5.157478084,-0.949780464,-0.074283361,-0.236124992,0.981506984
5.162333188,-0.975635052,-0.097203106,-0.197282791,1.000116342
5.167189751,-0.995046973,-0.10105899,-0.180043221,1.016241585
5.172048188,-1.015196204,-0.119291574,-0.181992531,1.038255794
5.176905272,-1.031254649,-0.127855301,-0.169628143,1.052904002
5.181761157,-1.081365347,-0.124319822,-0.157302856,1.099795717
5.186617459,-1.086455464,-0.139725953,-0.149781227,1.105596325
5.191434647,-1.072983146,-0.166830003,-0.154250145,1.096776271
5.196290272,-1.083525896,-0.164887547,-0.161064148,1.107771606
5.201146261,-1.113367796,-0.181702137,-0.163060188,1.1398211
5.206002928,-1.119615197,-0.191196591,-0.188966751,1.151435087
5.21086048,-1.150060296,-0.219740629,-0.18614769,1.185569733
5.215717251,-1.188174129,-0.233894199,-0.17858696,1.224074164
5.220573188,-1.202921271,-0.267267406,-0.173475266,1.244405528
5.225430011,-1.242260218,-0.310454339,-0.187576294,1.294131837
5.230287459,-1.274960756,-0.310897171,-0.189767838,1.325969009
5.23514423,-1.293859124,-0.328377843,-0.184848785,1.347617347
5.240000272,-1.31792438,-0.346146375,-0.187151909,1.375415509
5.244856886,-1.390067816,-0.356980026,-0.220564842,1.452023457
5.249714438,-1.309262514,-0.344132721,-0.194164276,1.367587448
5.254571105,-1.300235987,-0.336095393,-0.189283371,1.356245527
5.259427095,-1.327031851,-0.337528229,-0.193938255,1.382950066
5.264283866,-1.351462603,-0.346010417,-0.174655914,1.405944189
5.269141313,-1.387989759,-0.332809508,-0.153004646,1.435509722
5.273998084,-1.417938828,-0.350548536,-0.136236191,1.466967994
5.278854022,-1.469951272,-0.334697217,-0.119556427,1.512307081
5.283710741,-1.494013906,-0.337844223,-0.105397224,1.535358213
5.288568345,-1.519028425,-0.364748687,-0.098565102,1.565312761
5.293425168,-1.535548568,-0.370125413,-0.103867531,1.582937361
5.298321991,-1.526652098,-0.373119622,-0.123648643,1.576443423
5.30317897,-1.530663133,-0.371433228,-0.119645119,1.579622494
5.308036157,-1.528071284,-0.386514038,-0.122907639,1.5809811
5.312892928,-1.506639838,-0.372910708,-0.15729332,1.560053585
5.317749074,-1.509256721,-0.388171852,-0.182086945,1.56897702
5.322605584,-1.502182722,-0.389163733,-0.204433441,1.565181898
5.327463084,-1.482924342,-0.383125752,-0.193232536,1.543757999
5.332319855,-1.475466371,-0.372468591,-0.21070385,1.536271452
5.337175845,-1.494200706,-0.376316845,-0.204217911,1.554334287
5.34203272,-1.510801792,-0.382765353,-0.200181007,1.571338221
5.34689022,-1.527782202,-0.38462764,-0.169917107,1.58459102
5.351756782,-1.540518165,-0.357951462,-0.142180443,1.587936001
5.356602824,-1.580373526,-0.341019094,-0.121800423,1.621329654
5.361459438,-1.594784737,-0.340993255,-0.09204483,1.633427993
5.366317303,-1.579010725,-0.321880639,-0.084010124,1.613672741
5.371133241,-1.564146042,-0.307497442,-0.09048748,1.59665134
5.375988761,-1.550019622,-0.273864716,-0.082734108,1.576200382
5.380845532,-1.514906645,-0.271148443,-0.108553886,1.542805097
5.385703032,-1.499363303,-0.256233275,-0.132012367,1.526817956
5.390559751,-1.479284883,-0.257864684,-0.126781464,1.506934471
5.395415741,-1.461850286,-0.252168894,-0.133548737,1.489439718
5.400272511,-1.449504495,-0.239212871,-0.145137787,1.476262529
5.405130063,-1.439964294,-0.233594328,-0.142444611,1.465726423
5.40998673,-1.440456867,-0.22568208,-0.13984108,1.464719739
5.41484272,-1.436683178,-0.225206167,-0.156475067,1.462621215
5.419699491,-1.43593967,-0.227422208,-0.156477928,1.462234228
5.424556938,-1.409411788,-0.210875243,-0.158979416,1.43394017
5.429413709,-1.400173664,-0.192315757,-0.171152115,1.42364486
5.434269647,-1.362712264,-0.176365167,-0.16905117,1.384437678
5.439126366,-1.344771981,-0.141489893,-0.171809196,1.363066202
5.443983866,-1.319913626,-0.116280407,-0.167430878,1.335562133
5.448840636,-1.295202374,-0.105332762,-0.148731232,1.307962217
5.453696574,-1.289881825,-0.072820395,-0.127701759,1.298231749
5.458553293,-1.258555889,-0.037783653,-0.12348175,1.265163339
5.463410897,-1.282729268,-0.036092132,-0.112174034,1.28813044
5.468267563,-1.283597589,-0.017490417,-0.108161926,1.288265379
5.473123657,-1.270928502,0.008378059,-0.094733238,1.274481791
5.47802147,-1.266434431,0.010311037,-0.081497192,1.269095851
5.482879178,-1.272441268,0.019477844,-0.094741821,1.276112134
5.487735845,-1.237116456,0.038006693,-0.102625847,1.241947543
5.492602095,-1.207774282,0.041962504,-0.103499413,1.212926913
5.497449334,-1.162656903,0.062526941,-0.116345406,1.170135439
5.502306834,-1.123149991,0.073328376,-0.136295319,1.133763365
5.507163293,-1.09126687,0.095853418,-0.170355797,1.108635358
5.512018709,-1.064514995,0.099161237,-0.17803669,1.083846017
5.516875376,-1.009444356,0.116581917,-0.19989109,1.035628166
5.521733293,-0.997459412,0.126640886,-0.202549934,1.025665476
5.526589907,-0.980885506,0.145961374,-0.183834076,1.008581214
5.531446313,-0.99549222,0.150849879,-0.172424316,1.021513872
5.536303345,-0.993822694,0.165032178,-0.151699066,1.018789366
5.541159855,-0.990372658,0.179002345,-0.135995865,1.015566205
5.546031522,-0.992491126,0.185682714,-0.137181282,1.018987443
5.550831991,-0.997695327,0.206478566,-0.105244637,1.024258657
5.555688084,-0.989752054,0.22699061,-0.104635239,1.020824372
5.560545532,-0.968503594,0.235471249,-0.118418694,1.003727507
5.565402355,-0.950501919,0.241700798,-0.101324081,0.985971472
5.570258293,-0.926048994,0.262306809,-0.124803543,0.970539812
5.575115063,-0.890226722,0.280617803,-0.126747131,0.941973887
5.579972563,-0.89304173,0.280013859,-0.140580177,0.946411157
5.584829282,-0.867520213,0.289105028,-0.123441696,0.922719291
5.589685272,-0.887496233,0.295872003,-0.142065048,0.946241134
5.594542303,-0.879055262,0.278851211,-0.158180237,0.935690728
5.599399595,-0.873526692,0.285550743,-0.159977913,0.932834949
5.604256261,-0.880379081,0.270722002,-0.168941498,0.936428832
5.609112251,-0.890070081,0.265234798,-0.182649612,0.946538498
5.61396897,-0.881269097,0.280920476,-0.186823845,0.943639065
5.618826522,-0.889744878,0.279625446,-0.193413734,0.952494205
5.623683188,-0.872494936,0.292288572,-0.188129425,0.939187257
5.628539178,-0.851045847,0.288054407,-0.185302734,0.917382951
5.633395897,-0.834704757,0.302733153,-0.187245369,0.90743607
5.638253397,-0.823312283,0.291222423,-0.179649353,0.891587071
5.64311022,-0.816762805,0.306030422,-0.162583351,0.887236972
5.647966157,-0.815131307,0.306577444,-0.167006493,0.886746832
5.652822876,-0.827996373,0.311975181,-0.159522057,0.899084976
5.657722199,-0.836550951,0.322278917,-0.154513359,0.909700815
5.662578241,-0.845359325,0.308932781,-0.144806862,0.911614436
5.667395688,-0.854544282,0.307725668,-0.147074699,0.920093465
5.672291782,-0.862481236,0.304189146,-0.142334938,0.925561534
5.677148605,-0.849542618,0.300724328,-0.14953804,0.913520337
5.68200522,-0.832660675,0.278280795,-0.154359818,0.891398314
5.686861105,-0.804683447,0.265375137,-0.166302681,0.863479007
5.691717824,-0.80109489,0.259628236,-0.19239521,0.863814656
5.696591001,-0.76450789,0.251472652,-0.215869904,0.833253037
5.701432199,-0.727993131,0.240941674,-0.229563713,0.800453863
5.706287876,-0.712942004,0.220863149,-0.22644043,0.779962884
5.711144699,-0.690670252,0.222184822,-0.230384827,0.761228389
5.716002147,-0.680227518,0.216239437,-0.227087975,0.749024645
5.720858866,-0.679250121,0.195966318,-0.216630936,0.739400086
5.725714803,-0.685632706,0.197039828,-0.201487541,0.741292203
5.73053147,-0.689606071,0.193350434,-0.19828701,0.743141078
5.735388241,-0.689599276,0.172983333,-0.188030243,0.735408571
5.740244907,-0.685599446,0.183629781,-0.185007095,0.733480826
5.745100897,-0.65852797,0.170485437,-0.191514015,0.706683798
5.749957668,-0.648946166,0.162297308,-0.176598549,0.691851567
5.75481522,-0.613860369,0.159096152,-0.187907219,0.661396447
5.759671886,-0.558104038,0.148965091,-0.184840202,0.606495355
5.764527876,-0.519604206,0.146260023,-0.17936039,0.56881515
5.769384595,-0.490929604,0.115255699,-0.197583199,0.541603981
5.774242147,-0.450457633,0.110800147,-0.187066078,0.500182436
5.779098866,-0.407770991,0.077998638,-0.205024719,0.46302927
5.783954803,-0.384257019,0.085833669,-0.2251091,0.453536087
5.788811522,-0.375248432,0.057878196,-0.225960732,0.441836535
5.793669126,-0.359314919,0.027605906,-0.23860836,0.432207411
5.798525793,-0.336618662,0.002102017,-0.246340752,0.417133441
5.80338173,-0.333450377,0.000330821,-0.242085457,0.412061442
5.808238501,-0.292676926,-0.013522267,-0.244932175,0.381882711
5.813096053,-0.271765411,-0.027484849,-0.245333672,0.367151829
5.817952824,-0.22531569,-0.036685348,-0.238546371,0.330177749
5.822808761,-0.167552054,-0.041108653,-0.226982117,0.285104355
5.82766548,-0.13876617,-0.047796667,-0.220161438,0.264597109
5.832523032,-0.09592396,-0.040052757,-0.210917473,0.235142106
5.837437043,-0.063131213,-0.048824757,-0.199282646,0.214669467
5.842291834,-0.03260076,-0.05724749,-0.178119659,0.189912342
5.847148501,0.007216871,-0.074848011,-0.187890053,0.202378309
5.852005793,0.013554901,-0.087921485,-0.18453598,0.204859588
5.856862824,0.041108072,-0.093606472,-0.188269615,0.214237002
5.861703553,0.054034114,-0.132622078,-0.201464653,0.247176673
5.866523709,0.085857064,-0.138028651,-0.221716881,0.274921296
5.871418397,0.102311581,-0.179342955,-0.22513485,0.305478732
5.876274647,0.144956037,-0.184826508,-0.221262932,0.322692386
5.881131209,0.177683622,-0.202353045,-0.236418724,0.358346254
5.885987563,0.210250095,-0.231964678,-0.256224632,0.404553799
5.890845428,0.245269448,-0.23544836,-0.249585152,0.421765077
5.895712616,0.287466556,-0.248707011,-0.238055229,0.448511416
5.900557772,0.334777415,-0.254863709,-0.257499695,0.49329253
5.905414595,0.351270974,-0.246707946,-0.219414711,0.482077715
5.910231522,0.375361681,-0.252932757,-0.2290802,0.507295879
5.915087511,0.377692193,-0.2711007,-0.217103004,0.513108854
5.919943501,0.399087548,-0.267707765,-0.197855949,0.519697311
5.924800272,0.417823851,-0.27847299,-0.204818726,0.542286536
5.929657824,0.424163967,-0.27958566,-0.190135002,0.542433896
5.934514491,0.425250351,-0.285287738,-0.196868896,0.548620376
5.93937048,0.445117563,-0.309920669,-0.203465462,0.579291515
5.944227199,0.466935873,-0.298467249,-0.188402176,0.585326565
5.949084699,0.495718837,-0.325157374,-0.199528694,0.625520729
5.953942303,0.548435807,-0.325383902,-0.193777084,0.666487867
5.958797407,0.577429831,-0.337555766,-0.187909126,0.694750995
5.963654126,0.606671453,-0.352093786,-0.181932449,0.724651435
5.968511678,0.619603515,-0.371388853,-0.185418129,0.745800293
5.973368397,0.616141081,-0.378817588,-0.181620598,0.745733624
5.978224334,0.617708087,-0.374450475,-0.213587761,0.753257041
5.983081157,0.619328976,-0.3941724,-0.214317322,0.764769361
5.987938657,0.6088745,-0.387682676,-0.231663704,0.758085804
5.992795376,0.600600541,-0.405225158,-0.251249313,0.766847218
5.997651366,0.59677875,-0.403789073,-0.232419968,0.757106026
6.002508136,0.602234125,-0.400020003,-0.225431442,0.757311877
6.007365636,0.62896961,-0.410604417,-0.225485802,0.78424652
6.012223188,0.633983433,-0.390086889,-0.215839386,0.775041557
6.01712048,0.650728762,-0.390946567,-0.177369118,0.779581262
6.021976261,0.66805011,-0.379722029,-0.16037941,0.78498492
6.026833657,0.6976524,-0.370846212,-0.133748055,0.801332843
6.031690376,0.706236839,-0.378541857,-0.14771843,0.814791473
6.036546366,0.705785453,-0.386051118,-0.132903099,0.815372189
6.041403866,0.705684066,-0.391037434,-0.146711349,0.820014936
6.046260793,0.689149797,-0.376829624,-0.160417557,0.801661899
6.051118084,0.665645242,-0.381651521,-0.181185722,0.788396941
6.055973918,0.666101277,-0.38401252,-0.201820374,0.794913826
6.06084548,0.651883185,-0.381701291,-0.210331917,0.784147357
6.065688241,0.637654662,-0.374712259,-0.21872139,0.771266356
6.070544126,0.654335856,-0.377350718,-0.229357719,0.789401001
6.075400168,0.649430156,-0.368134677,-0.227910042,0.780529087
6.080256626,0.644658327,-0.361476809,-0.221581459,0.771588093
6.085114282,0.645029783,-0.366995901,-0.184108734,0.764621108
6.089930272,0.679570317,-0.355861843,-0.170567513,0.785841424
6.094786105,0.680808902,-0.3519696,-0.159355164,0.782801014
6.099643136,0.69458878,-0.326598883,-0.145736694,0.781255136
6.104500376,0.694424033,-0.320358992,-0.132088661,0.776081204
6.109357095,0.685118437,-0.299640715,-0.137540817,0.760321844
6.114213084,0.68079865,-0.281199455,-0.145305634,0.750782034
6.119069803,0.671828032,-0.269806147,-0.148202896,0.738994154
6.123927355,0.677224278,-0.265343279,-0.1557827,0.743846777
6.128784074,0.668287158,-0.248722136,-0.153693199,0.729446383
6.133640011,0.704870224,-0.241477013,-0.144350052,0.758940128
6.13849673,0.717680573,-0.2293154,-0.130167961,0.7645879
6.143354334,0.745236278,-0.217082977,-0.127930641,0.786681878
6.148211626,0.758832932,-0.195263565,-0.144800186,0.796820163
6.153066938,0.765787125,-0.180654556,-0.13056469,0.797567005
6.157923761,0.802009463,-0.185220212,-0.128314018,0.833060738
6.162781261,0.80296576,-0.175576061,-0.140440941,0.833849281
6.16763798,0.806907296,-0.161245987,-0.154969215,0.837326167
6.17249397,0.825554132,-0.130395085,-0.174249649,0.853759594
6.177351418,0.846805096,-0.123519264,-0.186302185,0.8758107
6.182208241,0.860872507,-0.109618649,-0.193488121,0.889131809
6.187064959,0.853416681,-0.090977043,-0.186250687,0.878228998
6.191920897,0.84359622,-0.069886237,-0.198081017,0.869353069
6.196832616,0.895677924,-0.04879272,-0.18585968,0.916058674
6.20163522,0.965131402,-0.025252692,-0.149802208,0.977014341
6.20653272,1.003337383,-0.011185423,-0.123268127,1.010943149
6.21140397,1.018309355,0.00301706,-0.08727169,1.022046669
6.216245376,1.034053922,0.017330408,-0.053800583,1.035597585
6.221103032,1.08160007,0.046111487,-0.03958416,1.083305998
6.225960168,1.091645837,0.053521261,-0.042229652,1.093772601
6.230816261,1.104774117,0.070624597,-0.061697006,1.108747133
6.235672668,1.113628626,0.073498331,-0.08836937,1.119544491
6.240529959,1.110809326,0.083553471,-0.12219429,1.120629281
6.245386834,1.129868984,0.103171885,-0.151220322,1.144602964
6.250242616,1.117777109,0.115603775,-0.17537117,1.137341174
6.255099543,1.163091421,0.111281529,-0.187490463,1.183350289
6.259956834,1.179664135,0.130760029,-0.185203552,1.201251852
6.264824022,1.222600937,0.142925948,-0.178107262,1.243745583
6.269628866,1.258860826,0.157291621,-0.166316986,1.279504816
6.27448548,1.292824268,0.16907689,-0.128227234,1.310123585
6.279343032,1.334437132,0.183108985,-0.11178112,1.351571818
6.284199751,1.355059385,0.187485799,-0.078709602,1.370230661
6.289055741,1.385970831,0.218085498,-0.060164452,1.404313423
6.293912459,1.405519247,0.229557306,-0.070445061,1.425883381
6.298770011,1.430283546,0.252995312,-0.052096367,1.453420683
6.30362673,1.424339771,0.264600366,-0.057742119,1.449859059
6.308482772,1.425868273,0.278762579,-0.070591927,1.454576271
6.313339386,1.461101055,0.305069625,-0.064320564,1.493994948
6.318197043,1.472664118,0.305220246,-0.070052147,1.50559168
6.323053813,1.501242638,0.303114057,-0.073428154,1.533296867
6.327909595,1.508613825,0.322720945,-0.079246521,1.544779755
6.332766678,1.523547649,0.299282849,-0.068392754,1.554170271
6.33762397,1.553379774,0.314079255,-0.060062408,1.585951447
6.342480688,1.574296713,0.307184398,-0.066243172,1.605353716
6.347336626,1.579134941,0.297724634,-0.06539917,1.608286098
6.352194178,1.582141161,0.292776883,-0.067074776,1.610399945
6.357050845,1.566416025,0.306794852,-0.097530365,1.599154282
6.361907668,1.577296972,0.313452065,-0.113659859,1.612152753
6.366763501,1.56915164,0.317524552,-0.110656738,1.604775257
6.371620376,1.561186075,0.331056774,-0.13398838,1.60151598
6.376518761,1.557979345,0.332554162,-0.130965233,1.598450438
6.381375272,1.550144911,0.3316755,-0.111233711,1.58912895
6.386231261,1.57118535,0.330836594,-0.103510857,1.608971956
6.391088241,1.585535526,0.327675819,-0.052883148,1.619904619
6.395945741,1.612389326,0.331759989,-0.023974419,1.646341035
6.400762876,1.628061533,0.340716034,0.021427155,1.663469535
6.405658501,1.622795343,0.332987189,0.028363228,1.656849319
6.410515272,1.618505001,0.325319916,0.049379349,1.651614303
6.415388136,1.612655401,0.320134789,0.036676407,1.644533029
6.420229334,1.585953236,0.315021694,0.009467125,1.616965046
6.425085636,1.543094635,0.300359726,-0.027420998,1.572294161
6.429942043,1.531711578,0.283333749,-0.064352989,1.559025234
6.434799543,1.503773928,0.283091038,-0.089324951,1.532793368
6.439656366,1.478374481,0.261224031,-0.111903191,1.505440608
6.444512459,1.464963198,0.260928243,-0.117712975,1.492667767
6.449328241,1.459002495,0.241318941,-0.11163044,1.483032187
6.454185584,1.460468531,0.233526811,-0.091277122,1.481834881
6.459042459,1.450428963,0.220816448,-0.080639839,1.469355935
6.463898345,1.455257893,0.21279034,-0.031899452,1.471078801
6.468755116,1.448745728,0.204587996,-0.01926136,1.46324688
6.473612616,1.445366144,0.203479916,-0.00445652,1.459625715
6.478469386,1.425987005,0.190360665,-0.006612778,1.438652095
6.483325324,1.400079727,0.189253509,-0.00894165,1.41284114
6.488182043,1.384334087,0.16911523,-0.006644249,1.394641521
6.493039647,1.34993124,0.170707092,-0.004476547,1.360689275
6.497896418,1.3350389,0.153280929,-0.016752243,1.343913891
6.502752459,1.32050395,0.13376762,-0.017151833,1.327372835
6.507609022,1.306271076,0.126435578,-0.020020485,1.312528438
6.512466678,1.297290325,0.116850659,-0.003883362,1.30254802
6.517323293,1.291276932,0.112189002,0.000118256,1.296141389
6.52217923,1.290673733,0.066884741,0.001549721,1.292406536
6.527036053,1.276460409,0.052794509,0.009945869,1.277590449
6.531893501,1.26294446,0.024294958,-0.00576973,1.263191293
6.536750272,1.247789145,0.007690176,-0.002543449,1.247815434
6.541606261,1.233218908,0.002924927,-0.028171539,1.233544108
6.546463241,1.207165956,-0.033071481,-0.04911232,1.208617139
6.551321001,1.186270475,-0.026063494,-0.074900627,1.188918437
6.556218345,1.17758584,-0.045449287,-0.112670898,1.183836467
6.561074386,1.154620409,-0.069630578,-0.112148285,1.162141964
6.565941678,1.142895222,-0.076450422,-0.091903687,1.149130298
6.570788501,1.126658201,-0.080807194,-0.069494247,1.1316881
6.575645532,1.139457226,-0.092163377,-0.040263176,1.143887224
6.580501053,1.155086279,-0.091507301,-0.009058952,1.15874068
6.585357616,1.130903244,-0.121633172,0.019324303,1.137589647
6.590215532,1.148131132,-0.125264227,0.035362244,1.155485487
6.595072147,1.142375708,-0.14059186,0.060519218,1.152584446
6.599887511,1.120741606,-0.165274739,0.052036285,1.134056992
6.604784803,1.107351303,-0.161071375,0.022004128,1.119220746
6.609642563,1.087416649,-0.168648899,-0.010274887,1.100464898
6.61449923,1.079916239,-0.190320462,-0.044760704,1.097471859
6.619370428,1.060991764,-0.197435543,-0.064811707,1.081149793
6.624211834,1.035136223,-0.206839055,-0.082322121,1.058804196
6.629028918,1.016777515,-0.225649297,-0.106841087,1.046980964
6.633885063,1.024918318,-0.234855533,-0.095599174,1.055819057
6.638741001,1.023782015,-0.248815164,-0.09876442,1.058202726
6.643597772,1.039677382,-0.258007348,-0.071140289,1.073572443
6.648455324,1.032214403,-0.272055805,-0.0723629,1.069914634
6.653312095,1.049123287,-0.27660358,-0.064223289,1.086873425
6.65816798,1.052215338,-0.295569092,-0.053917885,1.094269319
6.663024699,1.041554928,-0.281210333,-0.055693626,1.080285934
6.667882303,1.036307335,-0.290784508,-0.050469398,1.077513658
6.67273897,1.029186964,-0.269358516,-0.054886818,1.065266342
6.677595011,1.01297307,-0.295567572,-0.049840927,1.056389487
6.682451834,1.001937628,-0.288150221,-0.068634033,1.044806293
6.687309282,0.995922089,-0.292524993,-0.077795982,1.040905324
6.692166001,1.004433155,-0.280032188,-0.046555519,1.043777469
6.697021938,1.013218641,-0.30074054,-0.060747147,1.058653439
6.701878761,0.991475582,-0.288010031,-0.055907249,1.033972547
6.706736209,1.003616571,-0.301359177,-0.058320999,1.049506987
6.71159298,1.013912201,-0.305071771,-0.046600342,1.059838822
6.716448866,0.998580217,-0.31115526,-0.077827454,1.048826563
6.721305636,1.01007247,-0.32440877,-0.066175461,1.06295185
6.726163136,0.991073132,-0.333000869,-0.090317726,1.049415467
6.73102022,0.967831612,-0.329819381,-0.130930901,1.030835464
6.735875845,0.933142662,-0.324430197,-0.154605865,0.999956576
6.740773761,0.908449411,-0.312116027,-0.166227341,0.974847822
6.745631001,0.893270254,-0.321382761,-0.170543671,0.96452256
6.750498136,0.873524904,-0.297530293,-0.179548264,0.940110426
6.755344438,0.868151665,-0.302474111,-0.162313461,0.933554262
6.760201522,0.865312576,-0.295429915,-0.152329445,0.926956822
6.765058657,0.855668306,-0.28367573,-0.128211975,0.910537468
6.769930272,0.849071741,-0.272012293,-0.094894409,0.896615
6.774771418,0.840467691,-0.265184462,-0.085621834,0.885460241
6.779628449,0.849272966,-0.253585517,-0.074169159,0.889421863
6.784485897,0.8134799,-0.244389296,-0.072390556,0.852476433
6.789342876,0.792867899,-0.230438918,-0.08495903,0.830035925
6.794198397,0.756213188,-0.225947663,-0.109325409,0.796782767
6.799054855,0.722539186,-0.202428773,-0.131118774,0.761729885
6.803912772,0.691653013,-0.226503015,-0.162191391,0.745649753
6.808727824,0.653670311,-0.214782894,-0.178645134,0.710866127
6.813583709,0.623306751,-0.20788826,-0.218680382,0.692495447
6.818440428,0.586029291,-0.196374133,-0.191831589,0.647141784
6.823298032,0.568011761,-0.199271619,-0.203118324,0.635298034
6.828154751,0.547887087,-0.18329151,-0.204777718,0.612951834
6.833010741,0.513919592,-0.196118772,-0.208781242,0.588358332
6.837868449,0.499647975,-0.171048313,-0.184281349,0.55934358
6.842725636,0.483531237,-0.153422907,-0.167120934,0.534107154
6.84758173,0.460890293,-0.155062124,-0.173867226,0.516424183
6.852437668,0.431728125,-0.132954821,-0.173438072,0.483887304
6.857294386,0.384234071,-0.115787864,-0.177762032,0.438910003
6.862151991,0.361126423,-0.093942747,-0.172514915,0.411094793
6.867008761,0.312273741,-0.076918632,-0.190999031,0.374048119
6.871864647,0.270957708,-0.066911787,-0.202113152,0.344593954
6.876721366,0.246564031,-0.044985712,-0.2082901,0.325886946
6.881578918,0.198647499,-0.030127481,-0.192955971,0.278568664
6.886435636,0.186806321,-0.015260443,-0.182418823,0.261545617
6.891291626,0.151444793,-0.019435436,-0.188514709,0.242592368
6.896148293,0.133186698,-0.016310126,-0.182626724,0.226621352
6.901005897,0.113128304,-0.001264408,-0.181509018,0.213881125
6.905862616,0.072281361,-0.007741794,-0.189869881,0.203310359
6.910718657,0.048748851,0.016610533,-0.190993309,0.197815076
6.915631834,0.02377367,0.04310067,-0.206367493,0.212156539
6.920489386,-0.01530242,0.052608028,-0.228619576,0.235092916
6.925347928,-0.063473821,0.064321786,-0.236344337,0.25303135
6.930202303,-0.094639063,0.071059659,-0.243894577,0.271091483
6.935002459,-0.114897847,0.087827772,-0.257791519,0.295587043
6.939918501,-0.146468997,0.114058435,-0.240563393,0.30386385
6.944772616,-0.161718607,0.126000792,-0.247093201,0.321067216
6.949629074,-0.181698561,0.147591338,-0.234377861,0.331256021
6.954484647,-0.196861863,0.154839665,-0.226354599,0.33758898
6.959343032,-0.206897378,0.176631927,-0.211093903,0.344334138
6.96420173,-0.219058692,0.196101889,-0.20055294,0.355899064
6.969056626,-0.240430295,0.194224894,-0.175601006,0.355479605
6.973911522,-0.244611681,0.211690485,-0.196041107,0.378258974
6.978770793,-0.26752001,0.224498391,-0.199640274,0.402271951
6.983626834,-0.297404289,0.24461399,-0.195955276,0.432069191
6.98842647,-0.308448315,0.221682146,-0.223203659,0.440571459
6.993283188,-0.343031406,0.256200254,-0.23598671,0.488875079
6.998140741,-0.36092931,0.261901289,-0.253404617,0.512909497
7.002997459,-0.393319488,0.274797529,-0.27305603,0.552062947
7.007853449,-0.397203892,0.266062617,-0.273414612,0.550741136
7.012710116,-0.417922288,0.283545017,-0.276039124,0.575547056
7.01756772,-0.410080075,0.281721413,-0.268968582,0.56557645
7.022424386,-0.380605996,0.303772002,-0.276145935,0.559816873
7.027280324,-0.410706043,0.306626201,-0.247350693,0.56910583
7.032137147,-0.418995708,0.33096078,-0.237618446,0.584427042
7.036994647,-0.393493384,0.333754063,-0.246929169,0.572016461
7.04185147,-0.410822809,0.348574787,-0.236989975,0.588594946
7.046707355,-0.418447196,0.346651495,-0.234121323,0.591673988
7.051564074,-0.442725897,0.363992631,-0.228738785,0.617104762
7.056421574,-0.443167984,0.379108846,-0.242357254,0.631552388
7.061278345,-0.462972224,0.377537996,-0.231908798,0.640827519
7.066134282,-0.473540038,0.385661244,-0.250023842,0.659914149
7.070991001,-0.467700213,0.369929612,-0.248849869,0.646156068
7.075848553,-0.478888899,0.383038461,-0.245152473,0.660418637
7.080705272,-0.473504931,0.384181947,-0.248510361,0.658452798
7.085561261,-0.475420892,0.387780517,-0.258916855,0.665910424
7.09041798,-0.474996239,0.386538506,-0.245284081,0.659695175
7.095275949,-0.462545723,0.392421514,-0.243513107,0.653637379
7.100184491,-0.449583024,0.371958911,-0.255989075,0.637188146
7.105044074,-0.444030255,0.372913986,-0.258765221,0.634970195
7.109886105,-0.44333005,0.364245415,-0.266204834,0.632519777
7.114744386,-0.461588651,0.362653971,-0.273524284,0.647609079
7.119600428,-0.472846001,0.370516568,-0.26636982,0.657129172
7.124456834,-0.489106089,0.368753254,-0.275848389,0.671785727
7.129313241,-0.493688196,0.366940498,-0.275634766,0.674053327
7.134130116,-0.503785491,0.355564982,-0.258572578,0.66864494
7.139027928,-0.509023964,0.368140697,-0.23664093,0.671291218
7.143883449,-0.505269885,0.364021659,-0.228978157,0.663506158
7.148741209,-0.518483758,0.362367988,-0.237959862,0.675840855
7.153598397,-0.51996851,0.365684807,-0.232479095,0.676859778
7.15845522,-0.523850322,0.340491563,-0.234073639,0.667191226
7.163310688,-0.525527298,0.334528744,-0.22600174,0.662695411
7.168125897,-0.541813254,0.326239288,-0.236972809,0.67538862
7.172983397,-0.555426002,0.318108678,-0.226303101,0.678899306
7.177840168,-0.557311773,0.288480461,-0.239463806,0.671684675
7.182696105,-0.583355665,0.2756432,-0.254906654,0.693729348
7.187552824,-0.604938984,0.262776673,-0.267856598,0.711863689
7.192410376,-0.626909971,0.252157032,-0.256804466,0.722874688
7.197267147,-0.642106056,0.222381622,-0.262428284,0.728438314
7.202123136,-0.645693302,0.221059471,-0.260806084,0.73062093
7.206979803,-0.687889338,0.205290049,-0.259117126,0.76320209
7.211837355,-0.680059016,0.187111646,-0.257356644,0.750815207
7.216694074,-0.68204999,0.197547436,-0.236401558,0.74840021
7.221550168,-0.693789959,0.188857257,-0.248874664,0.760887751
7.226406834,-0.719867706,0.163460225,-0.227772713,0.772534251
7.231264386,-0.736469805,0.159753054,-0.223358154,0.786001067
7.236121105,-0.781934679,0.141783535,-0.218877792,0.824276592
7.240976991,-0.794115007,0.131144643,-0.226289749,0.836076918
7.245833761,-0.823374927,0.094297945,-0.20972538,0.854881926
7.250691261,-0.855405986,0.093562603,-0.207476616,0.885166599
7.255548084,-0.914353967,0.073767364,-0.193247795,0.937459072
7.26040397,-0.90926677,0.063574433,-0.210095406,0.935386469
7.265260741,-0.928747475,0.039129257,-0.214947701,0.954099306
7.270118293,-0.963020921,0.019388199,-0.219771385,0.987969968
7.274975063,-0.983325839,-0.005097836,-0.22217083,1.00812478
7.279872407,-0.986970067,-0.020078868,-0.234079361,1.014547299
7.284729751,-1.007781744,-0.035048157,-0.243562698,1.037388647
7.289586313,-1.014288187,-0.064455956,-0.231464386,1.042358316
7.294443345,-1.027904391,-0.074749947,-0.240838051,1.058384599
7.299299178,-1.036852598,-0.094695061,-0.22624588,1.065465937
7.304155688,-1.072092533,-0.1003851,-0.2283535,1.100729253
7.30901397,-1.088332534,-0.125190526,-0.216071129,1.116614125
7.313870168,-1.133669972,-0.126165956,-0.215750694,1.160893542
7.318726991,-1.172188997,-0.134308308,-0.205856323,1.197682175
7.323583501,-1.206466794,-0.159238786,-0.195988655,1.232611321
7.328440741,-1.236504316,-0.169735521,-0.176579475,1.260529009
7.333256001,-1.257761836,-0.184957951,-0.169198036,1.282498443
7.338153188,-1.291194201,-0.190527201,-0.168978691,1.31606872
7.343010584,-1.301303983,-0.205560416,-0.171180725,1.3285142
7.347826209,-1.295235753,-0.210862517,-0.166230202,1.322774031
7.352683918,-1.315605283,-0.230446309,-0.166043282,1.345917209
7.357538761,-1.31473124,-0.254694492,-0.170633316,1.350001203
7.362395584,-1.330821514,-0.257407516,-0.170427322,1.36615885
7.367253136,-1.349513769,-0.27920413,-0.184560776,1.390397439
7.372109855,-1.363574743,-0.277212262,-0.198666573,1.405578573
7.376965793,-1.418557763,-0.315964401,-0.188849449,1.465538722
7.381822511,-1.454682112,-0.338097781,-0.191018105,1.505622154
7.386680116,-1.409926057,-0.329314142,-0.190829277,1.46039553
7.391536886,-1.387212157,-0.332701415,-0.159598351,1.435450951
7.396392772,-1.41042304,-0.341013551,-0.173875809,1.461443188
7.401250793,-1.405251026,-0.332783014,-0.180990219,1.455414869
7.406107095,-1.407728314,-0.341382384,-0.157055855,1.457020069
7.410963866,-1.389028311,-0.333257347,-0.147521973,1.436044164
7.415819803,-1.392104387,-0.358584613,-0.135620117,1.443928795
7.420676522,-1.397796154,-0.338416189,-0.135697365,1.444566849
7.425534074,-1.375073314,-0.334862113,-0.147746086,1.422950512
7.430390741,-1.393492937,-0.331222862,-0.133523941,1.438526952
7.435246782,-1.405122042,-0.341787577,-0.124139786,1.451412204
7.440103501,-1.398244143,-0.359530807,-0.114848137,1.448288361
7.444961001,-1.413410664,-0.334190845,-0.091284752,1.45524779
7.44981772,-1.410068631,-0.342377603,-0.110877037,1.455269626
7.454717303,-1.400160193,-0.348174185,-0.120962143,1.447862449
7.459572563,-1.381429911,-0.339770764,-0.128756523,1.42841556
7.464429334,-1.358457804,-0.355366737,-0.136614799,1.41080003
7.469259907,-1.34074831,-0.349562705,-0.139749527,1.392598307
7.474142095,-1.33521533,-0.353442103,-0.152472496,1.389593163
7.478998813,-1.29887712,-0.340727538,-0.150874138,1.351273486
7.483856209,-1.286723971,-0.32577455,-0.158875465,1.336798059
7.488712876,-1.272254944,-0.320348054,-0.152522087,1.32080222
7.493568918,-1.265209913,-0.317446649,-0.155776024,1.313695044
7.498426053,-1.260853767,-0.300261408,-0.139939308,1.303645713
7.503293709,-1.254561782,-0.297445536,-0.128977776,1.295775589
7.508141001,-1.272681832,-0.285128057,-0.106154442,1.308543397
7.512996313,-1.253208876,-0.280048221,-0.095430374,1.287659291
7.517852876,-1.26331985,-0.258306026,-0.092041969,1.292737704
7.522710949,-1.240579247,-0.253271699,-0.08398056,1.26895081
7.527577772,-1.247427583,-0.243500084,-0.078473091,1.273391492
7.532381522,-1.226248741,-0.226519316,-0.087433815,1.250056658
7.537238345,-1.215212584,-0.204642445,-0.08452034,1.235218135
7.542095845,-1.197538018,-0.204255372,-0.100827217,1.219009307
7.546952668,-1.175513268,-0.189444095,-0.121965408,1.196911053
7.551808553,-1.15380764,-0.177032501,-0.121608734,1.173627394
7.556665376,-1.137204766,-0.171789318,-0.121303558,1.156486404
7.561522824,-1.130476713,-0.161828637,-0.130616188,1.149446256
7.566379595,-1.131342053,-0.151907504,-0.128036499,1.148653158
7.571235584,-1.137455583,-0.144485205,-0.130328178,1.153978601
7.576092303,-1.120058179,-0.132453412,-0.132698059,1.135642111
7.580949907,-1.129626155,-0.122980952,-0.120834351,1.142707532
7.585806574,-1.125418186,-0.10650003,-0.109097481,1.135698292
7.590662511,-1.128970146,-0.092594147,-0.119002342,1.138994655
7.59551923,-1.123478889,-0.069178611,-0.13377285,1.133527975
7.600376834,-1.125636101,-0.048220873,-0.117524147,1.132781448
7.605233553,-1.118693233,-0.036833078,-0.110941887,1.124784124
7.610089543,-1.119401336,-0.015806288,-0.104445457,1.124374512
7.614946313,-1.120515347,0.000469714,-0.112374306,1.126136247
7.619803813,-1.114865065,-0.002267331,-0.096446991,1.1190314
7.62466048,-1.116918683,0.026209414,-0.097362518,1.121460538
7.629516522,-1.130548477,0.037721485,-0.095291138,1.135184201
7.634373345,-1.135204315,0.034960538,-0.098098755,1.139971246
7.639272772,-1.131086469,0.063048422,-0.10576725,1.137769051
7.644128813,-1.13231647,0.055291057,-0.113472939,1.139330416
7.64898522,-1.127107382,0.07129249,-0.118864059,1.135597787
7.653841522,-1.132014036,0.087045491,-0.131439209,1.142938739
7.658699074,-1.113605976,0.083579004,-0.139245033,1.125385667
7.663555741,-1.09581244,0.113332033,-0.142321587,1.110812535
7.668371886,-1.075989962,0.121348828,-0.140658379,1.091908749
7.673268397,-1.082799554,0.12922138,-0.14382267,1.099926361
7.678126053,-1.077771068,0.134563863,-0.161218643,1.098038869
7.682982772,-1.068148017,0.154038876,-0.161870956,1.091270071
7.687838761,-1.085005522,0.168535501,-0.148322105,1.10798946
7.692695949,-1.104388595,0.166291714,-0.151553154,1.127073849
7.697553709,-1.109883904,0.187739968,-0.13585186,1.133818462
7.702409699,-1.115904212,0.182883829,-0.125125885,1.137692925
7.707282563,-1.139229894,0.204160064,-0.121732712,1.163763264
7.712081053,-1.134344816,0.211065203,-0.104198456,1.158509387
7.716938605,-1.127990127,0.220255703,-0.101195335,1.153739484
7.721795428,-1.143571615,0.229407102,-0.129162788,1.173484846
7.726651313,-1.105045676,0.24563247,-0.123752594,1.138760713
7.731508136,-1.102861285,0.249899387,-0.135063171,1.138856786
7.736366626,-1.084369421,0.256600142,-0.151060104,1.124508706
7.741222355,-1.059186101,0.244280696,-0.145588875,1.09669703
7.746078293,-1.058069468,0.262908459,-0.161534309,1.10214572
7.750935116,-1.05951035,0.257610708,-0.155995369,1.101480828
7.755792563,-1.054048181,0.249896646,-0.155274391,1.094338173
7.760649491,-1.039360642,0.25402236,-0.175951958,1.084323289
7.765505324,-1.04181242,0.255538911,-0.165642738,1.085408112
7.770362043,-1.030405283,0.249777257,-0.174467087,1.074505696
7.775219595,-1.005251527,0.255772978,-0.161897659,1.049838702
7.780076418,-0.99975884,0.268699467,-0.180353165,1.050830341
7.784932303,-0.992336869,0.267123014,-0.179706573,1.043255299
7.789789022,-0.968649387,0.284527212,-0.169589996,1.023717801
7.794646522,-0.947882533,0.280384809,-0.166707993,1.002441266
7.799503345,-0.927631378,0.28823024,-0.159126282,0.984326073
7.804360376,-0.917278886,0.274735153,-0.15398407,0.969840736
7.809215949,-0.902487636,0.275672764,-0.15600872,0.956461252
7.814074855,-0.869131923,0.271946818,-0.160403252,0.924702424
7.81897147,-0.855567098,0.28020668,-0.176674843,0.917455635
7.823828241,-0.839909315,0.267194271,-0.16668129,0.897007853
7.828685584,-0.83191371,0.266140878,-0.16628933,0.889136395
7.833541886,-0.791206956,0.260271311,-0.175429344,0.851190377
7.838399334,-0.775050521,0.247301221,-0.165525436,0.830216763
7.843254751,-0.757109046,0.243852988,-0.193713188,0.818659384
7.848111678,-0.718250632,0.235618562,-0.186053276,0.77847023
7.852968605,-0.675317883,0.215392753,-0.211699486,0.739773583
7.857836053,-0.635347486,0.211878344,-0.201500893,0.699400794
7.862681626,-0.609904051,0.215401888,-0.215075493,0.68164389
7.867496938,-0.563153028,0.214096427,-0.221342087,0.641849619
7.872396574,-0.52441144,0.203275308,-0.213324547,0.601527698
7.877253241,-0.509573698,0.209176168,-0.210044861,0.589524271
7.88210897,-0.483161688,0.193599507,-0.175897598,0.549423289
7.88696522,-0.459641933,0.194833994,-0.194244385,0.535688224
7.891782876,-0.436522245,0.181833372,-0.169670105,0.502397243
7.896638084,-0.40714252,0.185602203,-0.183303833,0.48354266
7.901494178,-0.378483176,0.170475349,-0.173072815,0.449739434
7.906350897,-0.352967978,0.167352214,-0.167666435,0.425094331
7.911208449,-0.306774259,0.138211459,-0.183654785,0.383330058
7.916065116,-0.29217875,0.130812123,-0.197094917,0.375934356
7.920921157,-0.232830286,0.123489603,-0.179510117,0.318878513
7.925777876,-0.205083251,0.123429924,-0.200001717,0.3119211
7.930635428,-0.172887623,0.092522025,-0.191760063,0.274266982
7.935492095,-0.136212468,0.078570515,-0.209619522,0.262044856
7.940348188,-0.106968224,0.06470409,-0.194009781,0.230799947
7.945204855,-0.068479598,0.039045066,-0.223558426,0.23704924
7.950062355,-0.056552768,0.051432461,-0.217177391,0.230237991
7.954919126,-0.028281391,0.030446231,-0.229771614,0.233499046
7.959775116,-0.012348533,0.021414801,-0.21370697,0.215131934
7.964631834,0.022087812,-0.009005174,-0.216708183,0.218016975
7.969489334,0.022583008,-0.015522227,-0.193511009,0.19544166
7.974346053,0.053530395,-0.029078901,-0.191810608,0.201252068
7.979202095,0.07205838,-0.028254136,-0.192419052,0.207402502
7.984058813,0.087759435,-0.046468869,-0.173950195,0.200299138
7.988916366,0.122079015,-0.062011868,-0.169792175,0.21812414
7.993773136,0.15605557,-0.048739329,-0.177435875,0.241272362
7.998670897,0.175234258,-0.07812424,-0.173051834,0.258374494
8.003542824,0.205311179,-0.10076803,-0.179358482,0.29064814
8.008400011,0.211528391,-0.101662561,-0.16402626,0.286328746
8.013256574,0.215285823,-0.114435121,-0.179696083,0.302876319
8.018112407,0.214079484,-0.143912315,-0.197640419,0.324965406
8.022969126,0.231757,-0.149540275,-0.179600716,0.329135258
8.027827095,0.244382128,-0.162319392,-0.20213604,0.356271228
8.032682511,0.24481222,-0.189468428,-0.203022957,0.370202147
8.03753897,0.259343177,-0.207183331,-0.210980415,0.393314825
8.042396886,0.264041305,-0.227368504,-0.209260941,0.406453427
8.04725548,0.290069103,-0.228505015,-0.219390869,0.429519476
8.052110949,0.304068267,-0.234468773,-0.20548439,0.435496213
8.05696548,0.327617645,-0.242922634,-0.208218575,0.457929801
8.06182423,0.315356523,-0.256139845,-0.189314842,0.44821587
8.066624959,0.320302576,-0.254908562,-0.194226265,0.453095969
8.071482095,0.341709495,-0.263252974,-0.175109863,0.465543737
8.076336938,0.336742938,-0.276302397,-0.179816246,0.471245905
8.081193657,0.329436898,-0.305949926,-0.191574097,0.488707133
8.086051261,0.329131305,-0.299629062,-0.16733551,0.475506219
8.090907928,0.328657746,-0.317103326,-0.181268692,0.49135402
8.09576397,0.313608199,-0.320145249,-0.180719376,0.483221043
8.100620636,0.32236892,-0.337406874,-0.182441711,0.501048997
8.105478241,0.328606158,-0.349858791,-0.191214561,0.516668355
8.110334959,0.344292045,-0.350333422,-0.18311882,0.524216579
8.115190897,0.350461811,-0.35564065,-0.17491436,0.529054615
8.120047616,0.344841629,-0.38723892,-0.188126564,0.551598889
8.12490522,0.368095398,-0.375810444,-0.191645622,0.559871196
8.129761886,0.365322381,-0.393139839,-0.187882423,0.568611625
8.134617928,0.355623424,-0.398542106,-0.195975304,0.568955314
8.139474595,0.358010709,-0.396872729,-0.206341743,0.572936773
8.144332147,0.353338212,-0.402489483,-0.211808205,0.575941309
8.149188866,0.367813051,-0.398580909,-0.19324398,0.575757255
8.154044907,0.35592097,-0.397055,-0.191328049,0.566514636
8.158901574,0.367841303,-0.405081779,-0.198860168,0.582188834
8.163759178,0.360561132,-0.389172971,-0.18713665,0.562565603
8.168616574,0.377093434,-0.382836491,-0.187264442,0.569061691
8.173472095,0.396076858,-0.385934919,-0.168151855,0.578011839
8.178369647,0.386242509,-0.396077842,-0.158506393,0.575486932
8.183227147,0.400905311,-0.386994213,-0.170319557,0.582664862
8.188084074,0.425420582,-0.387346417,-0.155726433,0.596045837
8.192954751,0.438161492,-0.375662327,-0.153014183,0.59709381
8.19779647,0.439539075,-0.378319621,-0.145466805,0.597897086
8.202613345,0.474852443,-0.376104206,-0.154602051,0.625172784
8.207510636,0.464417577,-0.366707385,-0.163599968,0.613940503
8.21236673,0.471125185,-0.369303077,-0.182085991,0.625698819
8.217223501,0.487512231,-0.367090255,-0.186113358,0.638013803
8.222080741,0.48470062,-0.362576097,-0.206769943,0.639648284
8.226938032,0.491526246,-0.346145451,-0.210569382,0.636988374
8.231793657,0.517495751,-0.351333678,-0.216659546,0.661950576
8.236650845,0.548276305,-0.344585299,-0.208300591,0.680246331
8.241507928,0.562467575,-0.323535591,-0.185529709,0.674882453
8.246364803,0.581670284,-0.326446474,-0.191409111,0.693934484
8.251179855,0.601526737,-0.303008109,-0.178135872,0.6966927
8.256036522,0.626246572,-0.303480923,-0.169578552,0.716269729
8.260894126,0.632278323,-0.267998099,-0.139479637,0.700752045
8.265750793,0.681650996,-0.251541078,-0.150015831,0.74190683
8.270606782,0.702633619,-0.251752704,-0.143758774,0.760092108
8.275463449,0.707092881,-0.232687145,-0.147018433,0.758774057
8.280321001,0.747594237,-0.227909356,-0.183689117,0.802858338
8.285177772,0.757152557,-0.22537148,-0.165258408,0.807082797
8.290033761,0.776396036,-0.208406657,-0.168307304,0.821310835
8.294890428,0.831548452,-0.188996673,-0.178450584,0.8712274
8.299748032,0.846163988,-0.195829183,-0.178961754,0.886774984
8.304604803,0.873023987,-0.16920957,-0.184220314,0.908151906
8.309460688,0.907330513,-0.135490462,-0.165528297,0.932204882
8.314317459,0.937166333,-0.137720764,-0.170750618,0.962498581
8.319174959,0.967435718,-0.106513649,-0.159225464,0.986219942
8.32403173,0.988464475,-0.099307038,-0.152482986,1.005074607
8.32888772,1.038464427,-0.085044712,-0.162467957,1.054531558
8.333744438,1.083972573,-0.056572326,-0.165255547,1.097955538
8.338601991,1.101024866,-0.042486146,-0.168021202,1.114581515
8.343458761,1.111012101,-0.030755557,-0.17073822,1.124475581
8.348315532,1.173599243,-0.016626634,-0.170994759,1.18610743
8.35317173,1.193253636,0.014205717,-0.159261703,1.20391874
8.358070116,1.186670542,0.016460419,-0.149881363,1.196211663
8.362926782,1.202061892,0.02353438,-0.130965233,1.209404213
8.367782616,1.234588027,0.042650208,-0.131215096,1.242273737
8.372639282,1.250687003,0.049891636,-0.107557297,1.256294443
8.377496938,1.271955729,0.073965929,-0.107857704,1.278661651
8.382353605,1.308132768,0.090871379,-0.108216286,1.315743026
8.387209543,1.304144263,0.110111296,-0.091883659,1.312005855
8.392066522,1.326925159,0.119726174,-0.099523544,1.33602757
8.396923709,1.32850945,0.117358766,-0.133475304,1.340345513
8.401740116,1.323270202,0.134037942,-0.138717651,1.337255691
8.406636938,1.337065458,0.150657654,-0.163011551,1.355365093
8.411493605,1.34635067,0.167227387,-0.149029732,1.36485713
8.416350897,1.355743408,0.166882217,-0.154175758,1.374649056
8.421207511,1.365306139,0.195200264,-0.164089203,1.388916579
8.426063657,1.367921591,0.206644192,-0.138129234,1.390320462
8.430879438,1.394841909,0.215596139,-0.114638329,1.416053528
8.435736886,1.412461281,0.210186034,-0.100761414,1.431564844
8.440593605,1.435308218,0.247801334,-0.067835808,1.45812101
8.445449543,1.434738874,0.244743183,-0.063721657,1.456858028
8.450306313,1.439469576,0.248927742,-0.066864967,1.462364047
8.455163866,1.439929008,0.257852584,-0.058132172,1.46398868
8.460020584,1.414493084,0.266843349,-0.070991516,1.441192511
8.464876574,1.420693636,0.292623341,-0.067184448,1.452071822
8.469733345,1.412942171,0.28737545,-0.061053276,1.443162406
8.474590845,1.41505146,0.289439023,-0.07409668,1.446248907
8.479447668,1.400768995,0.308254719,-0.080006599,1.43651516
8.484303553,1.39863801,0.298369795,-0.081142426,1.432409477
8.489160324,1.394519091,0.309932649,-0.084738731,1.431056391
8.494017824,1.395531893,0.316684872,-0.081215858,1.433315941
8.498874543,1.377818108,0.304200768,-0.070601463,1.412765165
8.503730532,1.398845673,0.320283175,-0.072048187,1.436851234
8.508587355,1.391667604,0.305132538,-0.059254646,1.425957819
8.513444907,1.377780914,0.323390245,-0.077658653,1.417354001
8.518301574,1.364372253,0.312860101,-0.062662125,1.401185081
8.523157511,1.34181881,0.307053506,-0.062115669,1.377903454
8.52801423,1.334038973,0.313194335,-0.071221352,1.372160032
8.532871886,1.331392765,0.326556683,-0.061260223,1.372224026
8.537769855,1.324226618,0.323315889,-0.060925484,1.364485696
8.542625793,1.312662125,0.30812642,-0.05828476,1.349600258
8.547483449,1.313520432,0.319355905,-0.043795586,1.352494795
8.552351938,1.300467253,0.309163451,-0.019863129,1.336858878
8.557196938,1.30244565,0.289547533,-0.017643929,1.33435893
8.562053761,1.28584218,0.296328992,-0.003606796,1.319550678
8.566909855,1.296187878,0.291202307,0.003080368,1.328499637
8.571767095,1.278563976,0.27646029,0.004788399,1.308120431
8.576624022,1.278268814,0.268981278,-0.010388374,1.306303949
8.581480428,1.268921614,0.268642783,-0.030461311,1.297404678
8.58633673,1.255258083,0.254029453,-0.038672447,1.281288171
8.591193709,1.22760582,0.244174853,-0.058915138,1.253039665
8.596050897,1.224239826,0.239129752,-0.062485695,1.248939811
8.600865532,1.206850052,0.238775373,-0.073307991,1.232426382
8.605773605,1.206431389,0.207309484,-0.079390526,1.226685279
8.610579751,1.196862936,0.195028633,-0.076010704,1.215028676
8.61543647,1.218697786,0.204271883,-0.04880619,1.236662177
8.620292407,1.224277973,0.189566642,-0.031338692,1.239263564
8.625149178,1.23047471,0.194024146,-0.016451836,1.245786517
8.630006782,1.232447147,0.176899493,-0.016085625,1.245181974
8.634863501,1.232706308,0.162275061,-0.00155735,1.243342456
8.639719386,1.228863478,0.147756457,0.000811577,1.237714861
8.644576157,1.237603903,0.133343637,0.010180473,1.244808253
8.649433709,1.237336159,0.121412151,-0.002135277,1.243280435
8.654290428,1.235131264,0.128711954,-0.009778976,1.241858138
8.659146418,1.228543997,0.100280151,-0.015128136,1.232722727
8.664003136,1.231926203,0.091198057,-0.030140877,1.235664893
8.66886147,1.247600794,0.077345334,-0.045229912,1.250814049
8.673717407,1.237349749,0.058814786,-0.03888607,1.239356973
8.678573449,1.261040449,0.049815118,-0.044629097,1.262812859
8.68343022,1.244563818,0.026438773,-0.026591301,1.245128589
8.68828772,1.271716118,0.010223553,-0.027859688,1.272062329
8.693144438,1.282606125,-0.006028444,-0.038829803,1.283207921
8.69800173,1.280124903,-0.010344386,-0.054329872,1.28131905
8.702857095,1.273420811,-0.040795885,-0.050850868,1.275088497
8.707715741,1.281416416,-0.05444555,-0.040388107,1.283208303
8.712574282,1.270747423,-0.053736202,-0.044369698,1.272656773
8.717469751,1.255871296,-0.060209684,-0.057938576,1.258648003
8.722325949,1.255642414,-0.083249584,-0.064351082,1.260043423
8.727182824,1.251007318,-0.098877572,-0.044687271,1.2557042
8.732039699,1.272809267,-0.104837596,-0.058504105,1.27845887
8.736854386,1.252069235,-0.110654294,-0.022452354,1.257149892
8.741752511,1.262975216,-0.123568408,-0.008235931,1.269032457
8.746609959,1.262407541,-0.122076951,-0.022759438,1.268500522
8.75147647,1.264859915,-0.137149423,0.005396843,1.272285225
8.756322824,1.282058716,-0.163984537,0.002313614,1.292505641
8.761179595,1.278280258,-0.18583633,-0.019882202,1.29187107
8.766037095,1.258539915,-0.186112985,-0.039684296,1.272845475
8.770893553,1.241732836,-0.20305258,-0.052305222,1.259311964
8.775750011,1.244400501,-0.2032215,-0.069656372,1.262807822
8.780606574,1.221159935,-0.220023274,-0.084547997,1.243700202
8.785464699,1.200775385,-0.229623571,-0.097013474,1.226376828
8.790279438,1.187676907,-0.215548471,-0.106994629,1.211810805
8.795135272,1.177518606,-0.227749392,-0.093270302,1.202962677
8.799992147,1.177229643,-0.256569564,-0.096349716,1.208710404
8.80485048,1.177288532,-0.261525154,-0.071000099,1.208074794
8.809706886,1.173048735,-0.261792749,-0.064967155,1.203660878
8.814562251,1.154995441,-0.26922527,-0.068579674,1.187939345
8.819419022,1.15897727,-0.283762842,-0.053295135,1.194399445
8.824276626,1.144449472,-0.274497032,-0.059632301,1.178418104
8.829133293,1.118626356,-0.277109534,-0.05652523,1.153823955
8.833989282,1.119532585,-0.270205259,-0.058281898,1.153152579
8.838846001,1.063857555,-0.284681976,-0.076734543,1.103958747
8.843703553,1.058794498,-0.29423362,-0.071347237,1.101230966
8.848560324,1.039813757,-0.282281488,-0.073181152,1.079931002
8.853416261,0.999796391,-0.284601569,-0.09164238,1.043546454
8.85827298,0.981828213,-0.286886215,-0.086277008,1.026515495
8.863130532,0.96192956,-0.305739462,-0.102376938,1.014527542
8.867987355,0.952092886,-0.307856262,-0.09230423,1.004876317
8.872843241,0.923745155,-0.3099944,-0.110882759,0.980661321
8.877700011,0.888861656,-0.302770495,-0.098504066,0.944165276
8.882557511,0.873612881,-0.307614744,-0.12665081,0.934808389
8.887414282,0.832835436,-0.310124338,-0.119036674,0.896639112
8.892270532,0.799751759,-0.296087414,-0.118632317,0.861013507
8.897168813,0.78409934,-0.291746944,-0.137325287,0.84781265
8.902026626,0.740142584,-0.299387366,-0.148716927,0.812133341
8.906893293,0.703892708,-0.292740822,-0.143410683,0.775711774
8.911738866,0.675207138,-0.269534022,-0.135767937,0.739585154
8.916595272,0.65173769,-0.277291,-0.125828743,0.719364433
8.921452824,0.614462376,-0.275421083,-0.115984917,0.683281263
8.926309543,0.606392622,-0.252146691,-0.118144035,0.667269045
8.931165376,0.586925507,-0.252683967,-0.103713989,0.647369546
8.935981001,0.558393717,-0.24834317,-0.101286888,0.619465016
8.940879855,0.535673857,-0.241612181,-0.087147713,0.594068726
8.945747616,0.508709192,-0.213571846,-0.115878105,0.563760331
8.950602199,0.45857358,-0.242720529,-0.118274689,0.532157764
8.955449386,0.425791264,-0.221700594,-0.146776199,0.501988651
8.96030673,0.379332304,-0.215019032,-0.141804695,0.458513634
8.965163761,0.369055271,-0.201316357,-0.160592079,0.450022093
8.969979334,0.332764387,-0.187704161,-0.179162025,0.421976327
8.974834959,0.287566185,-0.202727899,-0.190450668,0.400080453
8.979692511,0.261875868,-0.165473908,-0.170743942,0.353714685
8.98454923,0.25794673,-0.17842111,-0.184409142,0.363836968
8.98940522,0.211553812,-0.155682072,-0.169449806,0.312578246
8.994261991,0.194399238,-0.144979656,-0.166485786,0.294155879
8.999119438,0.184757471,-0.129583046,-0.154024124,0.273222473
9.003976261,0.185106516,-0.107272848,-0.163039207,0.268986374
9.008832772,0.162127972,-0.089793786,-0.155362129,0.241838364
9.01368897,0.137381911,-0.07944496,-0.161987305,0.226771202
9.018546522,0.120218873,-0.066763878,-0.156648636,0.208443728
9.023403241,0.094001532,-0.046964839,-0.15369606,0.186183949
9.028259178,0.094357967,-0.027193829,-0.164964676,0.191979881
9.033115897,0.052111626,-0.031181827,-0.164199829,0.17507002
9.037973449,0.038841724,-0.008874029,-0.18236351,0.186665149
9.042830168,0.01625216,-0.003340721,-0.202667236,0.203345277
9.047686209,0.001098871,0.016431063,-0.189492226,0.190206443
9.052542876,0.000508428,0.012335584,-0.185857773,0.18626738
9.057400428,-0.009382963,0.039099231,-0.194063187,0.198185041
9.062257199,-0.011888862,0.04903914,-0.187884331,0.194542294
9.067113188,-0.016450644,0.058865517,-0.188828468,0.198474087
9.071970011,-0.037550807,0.069019392,-0.188678741,0.204385438
9.076869855,-0.024617553,0.091089383,-0.193287849,0.215089498
9.081725584,-0.054837704,0.110634908,-0.207336426,0.241320638
9.086581366,-0.065641642,0.118216753,-0.20456028,0.245212018
9.091438188,-0.071510792,0.130587384,-0.211262703,0.258454615
9.096305636,-0.098746777,0.154922962,-0.21069622,0.279544178
9.101152563,-0.10694325,0.1601623,-0.205221176,0.281433033
9.106008293,-0.088811636,0.179823816,-0.206816673,0.288092429
9.110866366,-0.094526529,0.19474417,-0.189186096,0.287492496
9.115723657,-0.102558494,0.209718511,-0.202557564,0.309078736
9.120580272,-0.079369664,0.231919497,-0.213425636,0.325017998
9.125435688,-0.091955423,0.247042924,-0.197878838,0.329608921
9.130292407,-0.08998239,0.257430524,-0.213348389,0.346243903
9.135108813,-0.085650325,0.265411109,-0.209554672,0.348844085
9.140006418,-0.102100074,0.273466468,-0.21290493,0.361298829
9.144862668,-0.106730878,0.293457627,-0.220899582,0.382499
9.149679022,-0.114013076,0.270316541,-0.238308907,0.377969772
9.154535428,-0.133014083,0.294984132,-0.246044159,0.406504751
9.159392199,-0.123347163,0.300487965,-0.253647804,0.41212225
9.164248136,-0.144833326,0.315374911,-0.261127472,0.434310469
9.169104907,-0.147326946,0.327854425,-0.254123688,0.440196094
9.173962407,-0.149924338,0.313955218,-0.251790047,0.429468757
9.178819178,-0.150184453,0.335884213,-0.254126549,0.447162026
9.183675116,-0.136039495,0.345829099,-0.232442856,0.438331144
9.188531834,-0.152986765,0.365384579,-0.246541023,0.466576164
9.193389438,-0.138701677,0.392085612,-0.238998413,0.479676478
9.198246105,-0.148228943,0.380559742,-0.228967667,0.468213338
9.203102095,-0.157745421,0.390688032,-0.233180046,0.481553413
9.207958866,-0.174357295,0.388906598,-0.251624107,0.494937875
9.212816418,-0.190999091,0.389581591,-0.238843918,0.495278594
9.217673136,-0.205468118,0.392710358,-0.230732918,0.499676147
9.222529074,-0.231995881,0.383884937,-0.258382797,0.517640225
9.227385845,-0.239591703,0.391929686,-0.247613907,0.521848359
9.232243345,-0.249858052,0.378392875,-0.246304512,0.516019502
9.237100168,-0.262684822,0.386398137,-0.254446983,0.532024532
9.241956105,-0.282851636,0.36809957,-0.248117447,0.526369271
9.246812876,-0.307889581,0.383189112,-0.256037712,0.554242907
9.251670688,-0.309036702,0.386316538,-0.263841629,0.560675089
9.256568397,-0.314704806,0.372662246,-0.261973381,0.55366625
9.261424334,-0.337381035,0.370921969,-0.255216599,0.562622949
9.266292355,-0.352777958,0.361966997,-0.25553894,0.566367853
9.271139491,-0.375525892,0.360206366,-0.255752563,0.579808326
9.275996105,-0.398304939,0.356072158,-0.253469467,0.591338293
9.280852095,-0.416396767,0.363855064,-0.25347805,0.608299184
9.285708345,-0.44426772,0.345400453,-0.262947083,0.621141246
9.290565949,-0.474784583,0.336608589,-0.260343552,0.63757706
9.295422147,-0.491224378,0.330235064,-0.264817238,0.64844796
9.300279074,-0.529456675,0.335842282,-0.27396965,0.684232255
9.305135272,-0.553597033,0.322389722,-0.247150421,0.686649939
9.310002043,-0.599459052,0.289904147,-0.246571541,0.710065557
9.31484897,-0.595352829,0.291005313,-0.25785923,0.711069944
9.319705636,-0.629513085,0.275447011,-0.259473801,0.73449604
9.324562407,-0.639840007,0.257534206,-0.244260788,0.731698322
9.329379438,-0.664862394,0.270732343,-0.252895355,0.761113701
9.334235168,-0.689681768,0.236180201,-0.266206741,0.776085084
9.339091001,-0.717041373,0.225540414,-0.248333931,0.791635365
9.343947772,-0.744539142,0.212418735,-0.266267776,0.818754408
9.348805324,-0.784193039,0.199271306,-0.27931881,0.855971246
9.353663084,-0.828818917,0.183765471,-0.263581276,0.888923863
9.35851798,-0.840227723,0.165783286,-0.24540329,0.89089253
9.363374751,-0.878152311,0.14538762,-0.267824173,0.929526131
9.368232303,-0.890078187,0.129810244,-0.259064674,0.936057896
9.373089074,-0.911854506,0.135722727,-0.250253677,0.955262373
9.377945063,-0.929005802,0.122510433,-0.238991737,0.967045829
9.382801834,-0.953542233,0.099817365,-0.234850883,0.987097378
9.387659282,-0.961484134,0.09640348,-0.228251457,0.992896822
9.392516053,-0.98388654,0.078712314,-0.240721703,1.01596028
9.397372043,-1.016067743,0.058775097,-0.236373901,1.044854436
9.402230063,-1.026914477,0.034082502,-0.234363556,1.053869649
9.407086313,-1.052400589,0.033335149,-0.227521896,1.077229987
9.411943657,-1.082985282,0.013518155,-0.232595444,1.107763739
9.41679897,-1.09470892,-0.006276727,-0.230442047,1.118718263
9.421655793,-1.12111032,-0.018876106,-0.22824955,1.144265054
9.426513345,-1.126426458,-0.038695663,-0.22124958,1.148601453
9.431370063,-1.141658306,-0.05622223,-0.226181984,1.165205097
9.436226678,-1.164339542,-0.064227372,-0.219116211,1.186517442
9.441125532,-1.151096582,-0.088959485,-0.22395134,1.176049036
9.445981991,-1.150210142,-0.094606429,-0.219191551,1.17472494
9.450838397,-1.178138256,-0.102699786,-0.211999893,1.201457844
9.455695011,-1.172672391,-0.120421261,-0.219118118,1.199030678
9.460551261,-1.172234416,-0.133343667,-0.226192474,1.201281439
9.465408605,-1.195879459,-0.143870115,-0.194958687,1.22017834
9.470224334,-1.21759069,-0.159130722,-0.197234154,1.24368444
9.475121366,-1.217734814,-0.164799482,-0.187492371,1.243056851
9.479978136,-1.220922112,-0.18238315,-0.19212532,1.249330443
9.484835636,-1.226962566,-0.188004375,-0.177621841,1.253926753
9.489692407,-1.24548161,-0.191243798,-0.167929649,1.271219493
9.494548345,-1.242929459,-0.213566691,-0.182167053,1.274232791
9.499420793,-1.250287414,-0.2190786,-0.167683601,1.280363948
9.504263084,-1.229533672,-0.226995081,-0.184329987,1.263826476
9.509078188,-1.216490626,-0.227820128,-0.17228508,1.249573369
9.513934022,-1.210714459,-0.254948467,-0.181745529,1.250543746
9.518790741,-1.214740038,-0.267658412,-0.186400414,1.257767665
9.523648241,-1.202314973,-0.275635421,-0.174311638,1.245761103
9.528505063,-1.202096224,-0.283682972,-0.188537598,1.249422981
9.533361001,-1.204447031,-0.284686714,-0.17165184,1.249481304
9.53821772,-1.252513766,-0.295335174,-0.154791832,1.296138153
9.543075324,-1.190996051,-0.29169026,-0.178632736,1.239138594
9.547931938,-1.173069596,-0.295340985,-0.169003487,1.221425705
9.552788032,-1.184211016,-0.299062222,-0.154624939,1.231138828
9.557644751,-1.167113662,-0.298055708,-0.145083427,1.213276846
9.562502355,-1.167359233,-0.301833391,-0.135607719,1.213350909
9.56735897,-1.149007201,-0.308056772,-0.133369446,1.197039654
9.572215011,-1.147884846,-0.299934983,-0.131177902,1.193653323
9.57707173,-1.108917117,-0.294090301,-0.126631737,1.154219162
9.58192923,-1.120620131,-0.293035805,-0.129301071,1.165494843
9.586786001,-1.099247456,-0.296640545,-0.122442245,1.145134352
9.591641886,-1.099893808,-0.300233036,-0.137163162,1.148355345
9.596498709,-1.09622705,-0.301354527,-0.132787704,1.144622589
9.601356366,-1.090581298,-0.30970645,-0.118899345,1.139922237
9.60621298,-1.090140939,-0.294119686,-0.126596451,1.136195545
9.611069022,-1.092679143,-0.300121874,-0.129581451,1.140531543
9.615925897,-1.088624954,-0.311064273,-0.139818192,1.140795512
9.620824647,-1.077792287,-0.291002125,-0.133358955,1.124323379
9.625681418,-1.091437817,-0.294911236,-0.131767273,1.138231856
9.630537668,-1.076784611,-0.2941401,-0.132627487,1.124087873
9.635394543,-1.065008283,-0.286245108,-0.143119812,1.112053139
9.640251678,-1.065555692,-0.28079015,-0.144083977,1.111311042
9.645108397,-1.059283257,-0.268149346,-0.118794441,1.099134755
9.649974855,-1.058200598,-0.260335147,-0.141418457,1.098891293
